sep=;
ACCELEROMETER X (m/s²);ACCELEROMETER Y (m/s²);ACCELEROMETER Z (m/s²);GRAVITY X (m/s²);GRAVITY Y (m/s²);GRAVITY Z (m/s²);LINEAR ACCELERATION X (m/s²);LINEAR ACCELERATION Y (m/s²);LINEAR ACCELERATION Z (m/s²);GYROSCOPE X (rad/s);GYROSCOPE Y (rad/s);GYROSCOPE Z (rad/s);LIGHT (lux);MAGNETIC FIELD X (μT);MAGNETIC FIELD Y (μT);MAGNETIC FIELD Z (μT);ORIENTATION Z (azimuth °);ORIENTATION X (pitch °);ORIENTATION Y (roll °);PROXIMITY (i);ATMOSPHERIC PRESSURE (hPa);SOUND LEVEL (dB);LOCATION Latitude : ;LOCATION Longitude : ;LOCATION Altitude ( m);LOCATION Altitude-google ( m);LOCATION Altitude-atmospheric pressure ( m);LOCATION Speed ( Kmh);LOCATION Accuracy ( m);LOCATION ORIENTATION (°);Satellites in range;Time since start in ms ;YYYY-MO-DD HH-MI-SS_SSS
8.7111;1.0164;-0.1101;9.7928;0.4758;0.3338;-0.7576;0.449;-0.1141;-0.0275;0.2022;-0.0185;77.8188;-24.39;-23.97;-3.09;186.43;-3.05;-88.94;2.0;983.74;44.09;31.26146;34.799706;1003.23;NaN;;;43.916126;;0 / 0;5;2023-03-30 16:36:23:120
9.4367;0.5438;-0.1747;9.7873;0.6633;0.0735;-0.4418;0.0833;-0.1738;0.0441;-0.2089;-0.1987;77.8188;-23.75;-22.67;-4.29;190.16;-3.88;-89.57;2.0;983.79;37.131;31.26146;34.799706;1003.23;NaN;;;43.916126;;0 / 0;504;2023-03-30 16:36:23:619
9.719;0.1095;0.9852;9.7723;0.8133;0.2768;0.1979;-0.6815;0.1527;0.0228;0.2317;0.0903;77.8188;-25.03;-20.51;-4.0;189.9;-4.76;-88.38;2.0;983.81;36.404;31.26146;34.799706;1003.23;NaN;;;43.916126;;0 / 0;1004;2023-03-30 16:36:24:119
9.6227;0.2835;0.408;9.7573;1.0144;0.047;-0.1727;-0.909;0.5429;0.1689;-0.0996;-0.1287;114.1125;-23.69;-21.98;-3.1;187.66;-5.65;-89.11;2.0;983.8;34.213;31.26146;34.799706;1003.23;NaN;;;43.916126;;0 / 0;1504;2023-03-30 16:36:24:619
9.4582;1.4363;-0.1926;9.8003;0.4226;0.1109;-0.3734;1.1752;-0.3071;-0.0258;-0.3894;0.2691;114.1125;-23.16;-23.24;-4.76;192.17;-3.98;-89.01;2.0;983.82;32.402;31.26146;34.799706;1003.23;NaN;;;43.916126;;0 / 0;2004;2023-03-30 16:36:25:119
9.5157;0.4002;1.6247;9.7976;0.416;0.264;-0.0213;-0.2195;0.625;0.2619;-0.155;-0.1753;114.1125;-24.42;-21.84;-4.65;191.0;-1.47;-87.99;2.0;983.78;32.208;31.26146;34.799706;1003.23;NaN;;;43.916126;;0 / 0;2505;2023-03-30 16:36:25:620
8.854;0.3045;-0.0108;9.7471;1.0426;0.3779;-0.4441;-0.3732;0.8182;0.2363;0.1436;-0.0278;114.1125;-24.18;-21.8;-3.33;186.52;-6.17;-88.1;2.0;983.78;42.119;31.26146;34.799706;1003.23;NaN;;;43.916126;;0 / 0;3004;2023-03-30 16:36:26:119
9.0718;-0.5964;0.8369;9.7709;0.6079;0.6287;-0.5196;-1.0118;0.4866;-0.1177;0.0719;0.1025;114.1125;-26.49;-19.78;-4.49;187.22;-3.55;-86.32;0.0;983.78;42.954;31.26146;34.799706;1003.23;NaN;;;43.916126;;0 / 1;3505;2023-03-30 16:36:26:620
9.5958;-0.0485;-0.2423;9.7575;1.0081;0.1096;-0.588;-1.2164;-0.0633;-0.0805;0.0828;-0.1672;98.0863;-25.46;-21.44;-3.0;188.44;-5.9;-89.36;0.0;983.73;38.823;31.26146;34.799706;1003.23;NaN;;;43.916126;;0 / 1;4005;2023-03-30 16:36:27:120
10.6606;2.8205;0.0706;9.791;0.5788;0.1917;0.2846;1.7269;0.326;-0.0874;0.056;0.2961;98.0863;-23.83;-22.12;-5.01;192.59;-4.97;-88.64;0.0;983.77;37.633;31.26146;34.799706;1003.23;NaN;;;43.916126;;0 / 0;4504;2023-03-30 16:36:27:619
8.7954;0.6036;-1.1061;9.7389;1.0929;-0.4427;1.8018;0.3012;0.6497;0.2114;-0.2824;-0.0406;98.0863;-23.86;-22.19;-3.9;193.76;-6.05;-91.78;0.0;983.74;32.989;31.26146;34.799706;1003.23;NaN;;;43.916126;;0 / 0;5005;2023-03-30 16:36:28:120
9.1059;0.2853;1.066;9.7896;0.6266;0.0798;-1.0834;-0.7145;-0.6967;0.0968;-0.098;0.1648;98.0863;-27.51;-19.57;-2.94;190.3;-4.78;-90.41;0.0;983.76;38.92;31.26146;34.799706;1003.23;NaN;;;43.916126;;0 / 0;5504;2023-03-30 16:36:28:619
9.3745;-0.3015;0.338;9.7597;0.9176;0.3778;0.0814;-1.1281;-0.9639;0.0971;0.0971;-0.3001;98.0863;-27.3;-20.33;-3.51;188.43;-3.64;-87.26;2.0;983.75;48.907;31.26146;34.799706;1003.23;NaN;;;43.916126;;0 / 0;6005;2023-03-30 16:36:29:120
7.3256;2.3342;1.4542;9.8036;0.3471;0.0702;-1.2825;1.7662;-0.8251;-0.2433;0.0029;0.4067;98.0863;-26.74;-21.03;-5.78;196.17;-2.03;-89.59;2.0;983.78;32.67;31.26146;34.799706;1003.23;NaN;;;43.916126;;0 / 0;6505;2023-03-30 16:36:29:620
11.2128;-0.1161;1.0672;9.7831;0.5359;0.4906;0.7528;-0.085;-0.4243;0.235;0.1092;-0.3841;98.0863;-26.69;-20.34;-4.18;188.14;-3.13;-87.13;2.0;983.73;34.807;31.26146;34.799706;1003.23;NaN;;;43.916126;;0 / 0;7005;2023-03-30 16:36:30:120
9.7639;-0.7549;1.1462;9.7975;0.1115;0.4815;0.2668;-1.077;0.7964;-0.0441;-0.007;0.1642;98.0863;-29.52;-17.91;-4.28;189.7;-2.05;-87.89;0.0;983.74;33.097;31.26146;34.799706;1003.23;NaN;;;43.916126;;0 / 0;7504;2023-03-30 16:36:30:619
9.941;1.2634;-0.9685;9.7646;0.9416;0.0392;-0.0776;0.5676;-0.1175;0.3514;0.1205;-0.2104;119.5338;-26.12;-21.3;-0.72;182.79;-5.51;-89.77;2.0;983.77;30.933;31.26146;34.799706;1003.23;NaN;;;43.916126;;0 / 0;8004;2023-03-30 16:36:31:119
9.2201;3.0;-0.8859;9.7549;1.0373;0.0508;0.152;0.7852;-0.1404;-0.0872;-0.0564;0.3102;104.8425;-24.03;-22.97;-4.81;192.7;-8.02;-88.51;2.0;983.79;35.891;31.26146;34.799706;1003.23;NaN;;;43.916126;;0 / 0;8505;2023-03-30 16:36:31:620
10.4094;0.0993;-0.5557;9.7858;0.6851;0.0664;0.7832;-0.7337;0.3495;-0.3299;-0.3056;0.1759;104.8425;-26.89;-21.0;-3.98;191.44;-4.15;-89.67;0.0;983.78;33.248;31.26146;34.799706;1003.23;NaN;;;43.916126;;0 / 0;9004;2023-03-30 16:36:32:119
9.0879;-1.5661;-2.1739;9.8036;0.3548;-0.0121;-0.8251;-1.8538;-1.7142;0.3461;0.5429;0.0898;116.2463;-29.41;-18.58;-4.56;195.68;-2.07;-90.07;0.0;983.79;32.959;31.26146;34.799706;1003.23;NaN;;;43.916126;;0 / 0;9504;2023-03-30 16:36:32:619
9.74;0.262;-0.7131;9.7937;0.4936;0.2745;-0.3099;0.5105;0.4137;0.0567;-0.0269;-0.2097;116.2463;-26.74;-20.75;-5.59;194.97;-2.88;-88.39;0.0;983.76;33.886;31.26146;34.799706;1003.23;NaN;;;43.916126;;0 / 0;10004;2023-03-30 16:36:33:119
10.4536;2.2158;1.8221;9.7784;-0.2194;0.7561;0.4333;2.4647;0.838;-0.0218;-0.126;-0.0154;116.2463;-27.0;-20.12;-6.72;194.91;0.13;-86.51;0.0;983.78;33.46;31.26146;34.799706;1003.23;NaN;;;43.916126;;0 / 0;10504;2023-03-30 16:36:33:619
9.2788;-0.8501;-1.1533;9.7983;0.4288;-0.2134;0.1248;-0.871;-0.4752;-0.0166;-0.5295;0.0727;116.2463;-26.63;-19.84;-2.99;190.8;-2.51;-91.25;0.0;983.71;32.972;31.26146;34.799706;1003.23;NaN;;;43.916126;;0 / 0;11004;2023-03-30 16:36:34:119
9.673;-1.4177;-0.4684;9.8012;0.2551;-0.3293;-0.09;-1.3076;0.4364;-0.0137;-0.1301;-0.0429;116.2463;-27.82;-19.0;-2.56;191.16;-1.47;-91.24;0.0;983.75;33.48;31.26146;34.799706;1003.23;NaN;;;43.916126;;0 / 0;11504;2023-03-30 16:36:34:619
11.8708;1.0439;-0.8124;9.8066;0.2596;0.0085;-0.112;0.0695;-1.0247;-0.0518;0.1472;0.0409;116.2463;-27.35;-20.74;-4.92;193.79;-1.52;-89.95;0.0;983.77;32.069;31.26146;34.799706;1003.23;NaN;;;43.916126;;0 / 0;12005;2023-03-30 16:36:35:120
9.932;1.188;1.9663;9.7901;-0.6143;0.1137;0.1678;2.7123;-0.0757;-0.0312;0.3702;0.1646;116.2463;-28.16;-19.0;-7.1;197.85;3.59;-89.33;0.0;983.78;33.96;31.26146;34.799706;1003.23;NaN;;;43.916126;;0 / 0;12504;2023-03-30 16:36:35:619
9.2859;-0.2261;-0.7089;9.8034;0.3414;0.1096;-0.7692;-0.1805;-0.1866;0.2517;-0.1436;-0.2799;116.2463;-26.4;-20.72;-4.16;190.47;-1.99;-89.36;0.0;983.76;33.021;31.26146;34.799706;1003.23;NaN;;;43.916126;;0 / 0;13004;2023-03-30 16:36:36:119
8.2678;-1.0941;0.0203;9.8035;-0.0118;0.3556;-0.2947;-1.4543;0.8278;-0.015;0.1446;0.0634;116.2463;-28.41;-18.4;-5.12;192.24;-0.66;-87.63;0.0;983.79;34.7;31.26146;34.799706;1003.23;NaN;;;43.916126;;0 / 0;13505;2023-03-30 16:36:36:620
9.2195;1.0367;-1.6522;9.8066;0.0807;0.2453;-0.11;0.6064;-0.4924;0.2786;0.0727;-0.0492;116.2463;-27.58;-19.11;-3.66;188.75;-0.4;-87.74;0.0;983.78;32.426;31.26146;34.799706;1003.23;NaN;;;43.916126;;0 / 0;14005;2023-03-30 16:36:37:120
8.9097;0.4008;1.1737;9.7576;-0.9902;0.21;-0.6757;0.3937;-0.3579;-0.3221;0.6238;0.3161;116.2463;-28.01;-18.96;-5.49;192.11;4.05;-88.96;0.0;983.78;33.0;31.26146;34.799706;1003.23;NaN;;;43.916126;;0 / 0;14505;2023-03-30 16:36:37:620
8.7284;-0.8572;-0.5815;9.7777;-0.558;0.5665;-1.0603;-0.5429;-1.1433;0.1524;0.0788;-0.6148;116.2463;-27.61;-18.3;-5.79;192.58;3.26;-86.68;0.0;983.76;33.325;31.26146;34.799706;1003.23;NaN;;;43.916126;;0 / 0;15005;2023-03-30 16:36:38:120
9.6538;-1.3077;1.2574;9.8026;-0.2391;0.295;-0.0461;-1.1037;0.799;0.1698;0.4209;-0.055;116.2463;-28.74;-17.62;-4.05;189.49;1.4;-88.28;0.0;983.78;33.767;31.26146;34.799706;1003.23;NaN;;;43.916126;;0 / 0;15504;2023-03-30 16:36:38:619
9.5456;-0.7053;-0.6532;9.8071;-0.2283;0.0752;-0.2133;-0.6739;-0.0187;-0.0252;-0.0012;-0.0354;116.2463;-28.38;-18.54;-3.4;188.07;1.33;-89.56;0.0;983.76;32.573;31.26146;34.799706;1003.23;NaN;;;43.916126;;0 / 0;16004;2023-03-30 16:36:39:119
9.6054;0.8572;0.0538;9.7446;-1.094;0.287;-0.9319;1.9479;-0.2305;-0.489;0.2993;0.2274;116.2463;-28.91;-18.4;-5.04;192.45;4.77;-89.0;0.0;983.8;32.357;31.26146;34.799706;1003.23;NaN;;;43.916126;;0 / 0;16504;2023-03-30 16:36:39:619
8.4879;-1.0343;0.1836;9.8059;-0.0499;0.2784;-0.5426;-0.3345;-0.0213;0.3225;-0.191;-0.3842;116.2463;-27.73;-19.04;-5.08;191.67;2.08;-88.23;2.0;983.77;34.551;31.26146;34.799706;1003.23;NaN;;;43.916126;;0 / 0;17004;2023-03-30 16:36:40:119
9.9589;-3.146;0.816;9.7569;-0.6931;0.7476;-0.2345;-2.037;1.0345;-0.0651;-0.1616;0.1237;116.2463;-31.27;-16.14;-4.5;188.2;4.05;-85.62;2.0;983.76;33.125;31.26146;34.799706;1003.23;NaN;;;43.916126;;0 / 0;17504;2023-03-30 16:36:40:619
11.1075;0.1388;0.6042;9.8022;0.3901;-0.0348;0.647;-0.3993;-0.2771;-0.126;-0.1903;-0.0814;116.2463;-26.68;-20.53;-4.38;191.62;-2.28;-90.2;2.0;983.8;33.735;31.26146;34.799706;1003.23;NaN;;;43.916126;;0 / 0;18004;2023-03-30 16:36:41:119
10.7348;2.3151;-0.1501;9.7358;-0.8725;0.83;2.1744;3.4008;1.297;0.3219;-0.0104;-0.3482;116.2463;-29.01;-18.18;-7.87;196.03;6.05;-86.15;2.0;983.81;34.0;31.26146;34.799706;1003.23;NaN;;;43.916126;;0 / 0;18504;2023-03-30 16:36:41:619
7.7761;-1.118;-0.3535;9.7909;0.306;0.5304;0.2802;-0.8862;-1.1444;0.489;0.2909;-0.0669;116.2463;-27.36;-19.59;-4.34;187.54;-1.79;-86.9;2.0;983.71;33.495;31.26146;34.799706;1003.23;NaN;;;43.916126;;0 / 0;19005;2023-03-30 16:36:42:120
10.1091;-2.9396;0.0885;9.7988;-0.1631;0.4386;0.4154;-2.9447;0.6634;0.1249;-0.0429;-0.5072;116.2463;-30.32;-17.07;-4.04;185.7;2.79;-85.89;2.0;983.75;33.778;31.26146;34.799706;1003.23;NaN;;;43.916126;;0 / 0;19504;2023-03-30 16:36:42:619
8.9761;0.8566;1.852;9.7669;-0.6019;0.6941;1.353;1.351;0.6844;-0.6761;-0.0513;0.4186;116.2463;-27.95;-19.85;-7.37;192.97;3.52;-85.94;2.0;983.79;33.689;31.26146;34.799706;1003.23;NaN;;;43.916126;;0 / 0;20005;2023-03-30 16:36:43:120
11.0225;0.4187;-0.1346;9.769;0.3123;0.8393;1.2042;-0.674;0.2943;0.1443;-0.2654;-0.3114;116.2463;-26.22;-20.58;-6.67;193.26;-1.82;-85.09;2.0;983.74;35.656;31.26146;34.799706;1003.23;NaN;;;43.916126;;0 / 0;20504;2023-03-30 16:36:43:619
9.7418;-1.7043;1.2556;9.7842;0.6321;0.326;0.0774;-1.7969;0.1854;-0.0533;-0.1257;0.0817;116.2463;-28.15;-20.56;-4.75;191.99;-3.69;-88.09;2.0;983.73;33.579;31.26146;34.799706;1003.23;NaN;;;43.916126;;0 / 0;21005;2023-03-30 16:36:44:120
10.8215;1.2233;0.8686;9.7957;0.5009;0.17;0.5156;0.5169;1.4057;0.1735;0.2549;0.2492;116.2463;-26.58;-21.86;-4.55;193.2;-4.73;-89.19;0.0;983.7;32.226;31.26146;34.799706;1003.23;NaN;;;43.916126;;0 / 0;21504;2023-03-30 16:36:44:619
10.5224;2.3414;-0.5982;9.7974;-0.1667;0.4684;0.4742;2.341;-0.915;0.2671;-0.0058;-0.3954;116.2463;-27.73;-20.25;-8.26;197.2;1.85;-86.89;2.0;983.77;34.901;31.26146;34.799706;1003.23;NaN;;;43.916126;;0 / 0;22004;2023-03-30 16:36:45:119
10.8712;-1.0385;0.8841;9.7868;0.6482;-0.1883;-0.0358;-1.5378;0.4365;-0.0261;0.3088;0.1982;116.2463;-27.06;-21.34;-1.96;187.91;-5.3;-91.19;2.0;983.74;34.574;31.26146;34.799706;1003.23;NaN;;;43.916126;;0 / 0;22504;2023-03-30 16:36:45:619
9.5073;-0.3523;1.3047;9.7104;1.2508;-0.616;-0.0923;-1.7267;1.4512;0.0336;-0.3403;-0.4064;116.2463;-25.24;-22.23;-0.56;186.45;-5.05;-92.83;2.0;983.76;32.722;31.26146;34.799706;1003.23;NaN;;;43.916126;;0 / 0;23005;2023-03-30 16:36:46:120
10.7521;2.7206;1.4417;9.805;0.2649;-0.17;0.6671;2.6074;1.7493;0.002;-0.1503;0.022;116.2463;-26.93;-21.26;-3.17;189.71;-1.55;-90.99;0.0;983.77;33.063;31.26146;34.799706;1003.23;NaN;;;43.916126;;0 / 1;23504;2023-03-30 16:36:46:619
7.2993;1.3944;-0.0347;9.6878;1.5312;-0.197;0.1116;-0.9123;-0.2712;0.1926;0.3202;-0.4766;116.2463;-24.57;-22.97;-0.4;180.56;-7.55;-90.43;0.0;983.79;36.763;31.26146;34.799706;1003.23;NaN;;;43.916126;;0 / 1;24005;2023-03-30 16:36:47:120
9.9643;-0.5168;-0.7029;9.7847;0.6983;-0.0915;0.3915;-1.2391;0.2801;-0.0557;0.0869;0.2353;116.2463;-27.73;-20.02;-2.23;187.18;-4.08;-90.54;0.0;983.76;39.782;31.26146;34.799706;1003.23;NaN;;;43.916126;;0 / 1;24504;2023-03-30 16:36:47:619
9.3954;2.7912;-1.5637;9.7788;0.7625;-0.1699;0.2971;0.3366;0.6681;-0.0086;0.4175;0.1831;116.2463;-25.22;-22.16;-1.46;185.9;-5.24;-92.36;0.0;983.73;34.931;31.26146;34.799706;1003.23;NaN;;;43.916126;;0 / 1;25004;2023-03-30 16:36:48:119
9.0425;1.5619;0.4516;9.8057;0.1135;-0.2675;0.569;1.6604;1.0076;0.1663;0.2857;-0.0657;116.2463;-27.27;-19.79;-4.43;192.12;-0.04;-90.62;0.0;983.78;34.2;31.26146;34.799706;1003.23;NaN;;;43.916126;;0 / 1;25504;2023-03-30 16:36:48:619
10.1731;-1.9364;-0.5001;9.7942;-0.4718;-0.2938;-0.1966;-1.5458;0.0048;-0.0814;0.214;0.1866;116.2463;-30.06;-15.9;-2.55;192.61;2.76;-91.72;0.0;983.73;40.659;31.26146;34.799706;1003.23;NaN;;;43.916126;;0 / 1;26004;2023-03-30 16:36:49:119
8.9785;-0.9918;-0.7645;9.8052;-0.0662;-0.3013;-0.3937;-1.6588;0.2468;0.1029;-0.2083;-0.3213;116.2463;-28.57;-19.04;-0.39;182.66;0.39;-91.76;0.0;983.75;40.55;31.26146;34.799706;1003.23;NaN;;;43.916126;;0 / 0;26504;2023-03-30 16:36:49:619
9.801;1.3759;0.1149;9.7555;-0.9839;-0.3123;0.4513;1.4684;-1.3816;-0.4676;0.1174;0.2615;116.2463;-28.51;-18.06;-2.43;190.81;5.02;-93.77;0.0;983.8;42.672;31.26146;34.799706;1003.23;NaN;;;43.916126;;0 / 0;27004;2023-03-30 16:36:50:119
11.1607;0.0179;1.1665;9.8013;-0.3132;0.2676;0.6162;-0.2028;-0.3273;0.2896;0.0524;-0.4105;116.2463;-27.5;-18.81;-3.26;186.5;1.83;-88.44;0.0;983.8;40.096;31.26146;34.799706;1003.23;NaN;;;43.916126;;0 / 0;27505;2023-03-30 16:36:50:620
10.5224;-2.6512;1.8455;9.7218;-1.079;0.7468;-0.1088;-1.4219;-0.2611;-0.1642;-0.0244;0.1512;116.2463;-31.76;-14.44;-4.57;189.36;5.11;-86.03;0.0;983.79;35.234;31.26146;34.799706;1003.23;NaN;;;43.916126;;0 / 0;28005;2023-03-30 16:36:51:120
9.4893;-0.4684;0.2118;9.8082;0.1599;-0.0985;-0.7548;0.1607;-0.8529;-0.1214;-0.3144;-0.1501;116.2463;-26.28;-20.09;-1.66;186.59;-0.93;-90.58;0.0;983.8;36.102;31.26146;34.799706;1003.23;NaN;;;43.916126;;0 / 0;28504;2023-03-30 16:36:51:619
10.5876;0.9619;-0.4343;9.7186;-1.255;0.4593;0.6862;1.9819;-0.7016;0.4569;0.5531;-0.3806;104.1638;-29.04;-17.49;-7.19;195.26;7.35;-87.29;0.0;983.81;40.551;31.26146;34.799706;1003.23;NaN;;;43.916126;;0 / 0;29004;2023-03-30 16:36:52:119
11.2618;-3.3673;0.0173;9.7883;-0.5137;0.4022;-0.6455;-1.8492;-0.9836;0.1509;0.8351;0.4287;104.1638;-29.82;-17.35;-4.31;191.12;1.21;-88.98;0.0;983.83;32.357;31.26146;34.799706;1003.23;NaN;;;43.916126;;0 / 0;29504;2023-03-30 16:36:52:619
9.7023;-3.1358;1.3047;9.7912;-0.5531;0.2522;-0.2935;-2.5459;1.0901;0.0673;-0.3297;-0.1628;104.1638;-30.72;-16.77;-3.35;185.51;4.57;-87.92;0.0;983.84;34.576;31.26146;34.799706;1003.23;NaN;;;43.916126;;0 / 0;30005;2023-03-30 16:36:53:120
7.0475;-0.6215;8.0154;6.8637;-1.2156;6.9028;1.3193;0.6687;0.3652;1.3347;1.9584;1.1858;130.12;-29.29;-16.2;-17.28;184.75;6.3;-62.4;0.0;983.99;51.59;31.26146;34.799706;1003.23;NaN;;;43.916126;;0 / 0;30505;2023-03-30 16:36:53:620
6.5928;0.2255;6.5767;6.8926;-0.0378;6.9805;-0.1555;0.0579;-0.5915;-0.0893;-0.5964;0.1323;130.12;-35.07;-10.77;-7.83;119.96;0.22;-44.64;0.0;983.78;46.398;31.26146;34.799706;1003.23;NaN;;;43.916126;;0 / 0;31005;2023-03-30 16:36:54:120