sep=;
ACCELEROMETER X (m/s²);ACCELEROMETER Y (m/s²);ACCELEROMETER Z (m/s²);GRAVITY X (m/s²);GRAVITY Y (m/s²);GRAVITY Z (m/s²);LINEAR ACCELERATION X (m/s²);LINEAR ACCELERATION Y (m/s²);LINEAR ACCELERATION Z (m/s²);GYROSCOPE X (rad/s);GYROSCOPE Y (rad/s);GYROSCOPE Z (rad/s);LIGHT (lux);MAGNETIC FIELD X (μT);MAGNETIC FIELD Y (μT);MAGNETIC FIELD Z (μT);ORIENTATION Z (azimuth °);ORIENTATION X (pitch °);ORIENTATION Y (roll °);PROXIMITY (i);ATMOSPHERIC PRESSURE (hPa);SOUND LEVEL (dB);LOCATION Latitude : ;LOCATION Longitude : ;LOCATION Altitude ( m);LOCATION Altitude-google ( m);LOCATION Altitude-atmospheric pressure ( m);LOCATION Speed ( Kmh);LOCATION Accuracy ( m);LOCATION ORIENTATION (°);Satellites in range;Time since start in ms ;YYYY-MO-DD HH-MI-SS_SSS
1.6062;4.0899;8.8032;1.494;3.9693;8.8458;0.0349;0.1043;0.0936;0.0452;0.0411;0.1565;316.7275;-1.92;-29.39;-19.7;184.45;-23.75;-9.81;2.0;983.78;37.283;31.26146;34.79971;1003.23;NaN;;;44.42258;;0 / 0;10;2023-03-30 16:31:19:288
1.4124;3.9188;8.9216;1.413;3.9285;8.8773;-0.0238;-0.0022;0.0599;0.0128;0.0619;0.08;425.7425;-2.66;-30.18;-20.92;181.01;-23.6;-9.04;2.0;983.82;39.826;31.26146;34.79971;1003.23;NaN;;;44.42258;;0 / 0;508;2023-03-30 16:31:19:786
2.2851;3.941;8.9605;1.5293;3.7624;8.9298;-0.0879;-0.3761;-0.0405;-0.2877;-0.2002;0.0719;371.1513;-3.26;-29.15;-20.67;181.81;-22.55;-9.72;2.0;983.83;39.36;31.26146;34.79971;1003.23;NaN;;;44.42258;;0 / 0;1009;2023-03-30 16:31:20:287
1.7731;3.472;9.0592;1.6074;3.423;9.0518;0.1954;0.0082;-0.2781;-0.0531;-0.0034;0.0446;371.1513;-3.28;-28.94;-19.87;181.62;-20.75;-10.13;2.0;983.89;54.315;31.26146;34.79971;1003.23;NaN;;;44.42258;;0 / 0;1509;2023-03-30 16:31:20:787
1.6008;3.3882;8.8588;1.6559;3.3866;9.0568;-0.0981;-0.0196;-0.108;0.069;-0.0363;0.0166;371.1513;-3.55;-29.05;-20.48;179.04;-20.2;-10.36;2.0;983.87;39.734;31.26146;34.79971;1003.23;NaN;;;44.42258;;0 / 0;2008;2023-03-30 16:31:21:286
1.3298;3.277;9.9422;1.8409;3.3398;9.0384;-0.1431;-0.1645;-0.336;0.2144;-0.4505;0.0098;371.1513;-4.93;-28.3;-20.26;176.3;-20.37;-10.6;2.0;983.91;33.859;31.26146;34.79971;1003.23;NaN;;;44.42258;;0 / 0;2508;2023-03-30 16:31:21:786
7.4985;5.8014;6.3846;5.5608;5.4278;5.9877;0.1097;-0.6703;-0.709;2.2199;-1.024;0.8092;371.1513;-15.77;-30.19;-6.34;153.1;-29.14;-34.27;2.0;983.86;56.954;31.26146;34.79971;1003.23;NaN;;;44.42258;;0 / 0;3009;2023-03-30 16:31:22:287
7.2006;5.9994;2.8008;6.5981;6.5294;3.173;-0.2733;-0.7535;0.6449;0.2686;-0.2078;-0.1054;371.1513;-19.69;-25.46;9.03;122.54;-39.73;-55.34;2.0;983.7;34.821;31.26146;34.79971;1003.23;NaN;;;44.42258;;0 / 0;3508;2023-03-30 16:31:22:786
4.6965;6.0634;-0.0078;6.1505;7.6419;0.0949;-0.7137;-0.5252;-0.5419;-0.6374;-1.1387;-0.7584;75.5838;-5.14;-26.3;15.85;128.09;-51.17;-89.12;2.0;983.51;42.682;31.26146;34.79971;1003.23;NaN;;;44.42258;;0 / 0;4008;2023-03-30 16:31:23:286
1.669;7.748;0.8022;-1.4098;9.6445;1.1098;1.536;-2.1807;-0.0615;0.8386;-2.1932;-2.0243;75.5838;26.06;-18.82;-3.03;267.99;-79.11;-0.61;2.0;983.65;44.744;31.26146;34.79971;1003.23;NaN;;;44.42258;;0 / 0;4508;2023-03-30 16:31:23:786
-2.543;9.3811;0.8004;-3.2392;9.2556;0.2766;1.3571;1.1065;0.8016;0.6049;-0.0515;-1.0884;75.5838;31.98;-8.23;-9.76;14.38;-70.65;85.12;2.0;983.74;43.245;31.26146;34.79971;1003.23;NaN;;;44.42258;;0 / 0;5008;2023-03-30 16:31:24:286
-10.7288;2.6614;-3.4409;-8.9455;1.7774;-3.6133;-0.2082;-0.8024;-2.0437;-0.684;-0.5814;0.4815;75.5838;31.1;23.27;-7.72;40.87;-5.35;118.23;2.0;983.91;56.242;31.26146;34.79971;1003.23;NaN;;;44.42258;;0 / 0;5509;2023-03-30 16:31:24:787
-10.0822;2.8923;-0.6461;-9.4483;2.338;-1.2243;-0.5363;0.3524;0.5001;-0.2379;-0.2468;-0.3175;75.5838;29.91;21.9;-13.46;31.22;-14.78;98.3;2.0;983.95;50.606;31.26146;34.79971;1003.23;NaN;;;44.42258;;0 / 0;6008;2023-03-30 16:31:25:286
-2.522;7.934;-2.0841;-3.3785;9.1025;-1.402;-1.6813;-1.4938;-0.0947;-0.2556;0.3578;3.7881;75.5838;31.63;-7.1;-14.24;60.42;-37.91;102.75;0.0;983.86;36.167;31.26146;34.79971;1003.23;NaN;;;44.42258;;0 / 0;6508;2023-03-30 16:31:25:786
0.8381;9.9918;-0.9159;0.8583;9.7177;-1.0321;0.073;-0.0981;0.0212;-0.0483;0.2535;0.025;75.5838;21.09;-23.63;-13.08;163.52;-82.14;-140.25;0.0;984.56;55.299;31.26146;34.79971;1003.23;NaN;;;44.42258;;0 / 0;7008;2023-03-30 16:31:26:286
1.8036;9.7789;-0.6281;1.5376;9.6335;-1.0336;-0.6692;-0.0988;-0.0475;0.0528;0.02;-0.1643;75.5838;17.85;-25.55;-12.87;183.7;-79.13;-121.39;0.0;984.35;45.706;31.26146;34.79971;1003.23;NaN;;;44.42258;;0 / 0;7508;2023-03-30 16:31:26:786
1.5781;9.4834;-0.2195;1.6315;9.6536;-0.6184;-0.5381;-0.3685;-0.3363;-0.1402;0.6235;-0.0745;75.5838;18.76;-25.36;-13.83;193.34;-79.75;-110.76;0.0;983.88;36.267;31.26146;34.79971;1003.23;NaN;;;44.42258;;0 / 0;8008;2023-03-30 16:31:27:286
1.6307;9.7017;0.0843;2.0433;9.5935;0.1583;0.3079;-0.2454;0.0426;-0.0458;0.018;-0.1457;75.5838;18.14;-25.73;-13.05;211.24;-77.37;-87.54;0.0;986.16;36.432;31.26146;34.79971;1003.23;NaN;;;44.42258;;0 / 0;8508;2023-03-30 16:31:27:786
1.8473;9.1232;-0.0257;1.8052;9.6424;0.0345;0.1803;0.1442;0.0658;0.0444;0.279;-0.12;75.5838;19.56;-25.58;-11.19;205.08;-79.07;-88.87;0.0;984.82;49.269;31.26146;34.79971;1003.23;NaN;;;44.42258;;0 / 0;9008;2023-03-30 16:31:28:286
0.4086;9.5827;-0.1848;-0.212;9.7972;-0.453;-0.5809;-0.5743;-0.046;-0.0522;0.2295;-1.0464;75.5838;24.55;-21.02;-7.86;190.98;-83.69;-95.86;0.0;983.06;37.89;31.26146;34.79971;1003.23;NaN;;;44.42258;;0 / 0;9508;2023-03-30 16:31:28:786
-2.1643;9.5492;-0.5198;-2.2075;9.5558;-0.2211;-0.1848;0.2462;0.2059;-0.1078;0.4169;0.0035;3.5475;29.41;-13.72;-9.33;26.2;-76.93;95.72;0.0;984.92;43.904;31.26146;34.79971;1003.23;NaN;;;44.42258;;0 / 0;10008;2023-03-30 16:31:29:286
-1.8718;9.7232;-0.3093;-1.6482;9.6621;-0.4034;-0.4525;-0.2291;-0.1133;0.1113;-0.1535;0.087;5.14;28.94;-15.16;-10.13;32.16;-79.53;99.98;0.0;983.99;43.442;31.26146;34.79971;1003.23;NaN;;;44.42258;;0 / 0;10508;2023-03-30 16:31:29:786
1.2329;9.4074;-1.0534;-1.1731;9.7177;-0.6535;-1.2998;-0.2416;-0.1807;0.1529;-0.5964;0.299;5.14;25.56;-18.6;-14.71;63.81;-82.13;119.12;0.0;983.71;42.862;31.26146;34.79971;1003.23;NaN;;;44.42258;;0 / 0;11008;2023-03-30 16:31:30:286
-0.3984;10.0481;-0.8865;0.3833;9.7375;-1.1268;0.5963;0.8986;0.2271;-0.1225;0.137;-0.3838;5.14;1.79;-24.62;-27.79;206.42;-80.82;-146.16;0.0;985.44;47.178;31.26146;34.79971;1003.23;NaN;;;44.42258;;0 / 0;11509;2023-03-30 16:31:30:787
0.204;9.542;-0.5139;0.5422;9.7761;-0.6086;0.0527;-0.0339;0.1235;0.0447;-0.0991;0.4039;5.14;4.12;-23.33;-30.23;158.03;-86.51;164.67;0.0;983.87;42.212;31.26146;34.79971;1003.23;NaN;;;44.42258;;0 / 0;12008;2023-03-30 16:31:31:286
0.2859;9.9218;-1.6756;0.1538;9.7704;-0.8671;0.1115;-0.1344;-0.6222;0.1165;0.2625;-0.0953;5.14;3.73;-24.08;-30.13;190.13;-84.21;-161.52;0.0;985.86;48.159;31.26146;34.79971;1003.23;NaN;;;44.42258;;0 / 0;12509;2023-03-30 16:31:31:787
2.8594;9.6132;-0.2542;1.7123;9.6318;-0.7301;1.2466;0.0756;0.633;0.0414;-0.077;0.5206;5.14;0.46;-24.19;-29.27;239.49;-79.06;-113.09;0.0;983.71;39.367;31.26146;34.79971;1003.23;NaN;;;44.42258;;0 / 0;13008;2023-03-30 16:31:32:286
3.335;9.7095;-0.2279;1.6208;9.634;-0.8921;1.7092;-0.031;0.4814;0.1327;0.1947;-0.1552;5.14;0.18;-24.86;-29.67;233.48;-79.4;-119.84;0.0;986.86;41.099;31.26146;34.79971;1003.23;NaN;;;44.42258;;0 / 0;13509;2023-03-30 16:31:32:787
3.2495;8.9785;-1.2574;1.4691;9.6617;-0.8544;1.5123;-0.4436;0.3586;0.1588;0.3395;0.037;2.5825;2.67;-24.8;-27.95;227.57;-80.02;-120.18;0.0;985.26;37.597;31.26146;34.79971;1003.23;NaN;;;44.42258;;0 / 0;14008;2023-03-30 16:31:33:286
1.4291;9.7436;-0.6401;1.4002;9.6691;-0.8849;0.2532;0.0574;0.1789;0.0544;-0.0101;-0.0574;2.5825;1.94;-24.36;-29.5;229.94;-80.18;-120.3;0.0;984.22;40.716;31.26146;34.79971;1003.23;NaN;;;44.42258;;0 / 0;14508;2023-03-30 16:31:33:786
-0.0473;9.5665;-1.7049;-0.6747;9.7823;-0.2957;-0.6498;0.4888;-0.3364;-0.14;-0.2007;-1.1813;2.5825;3.39;-22.23;-31.81;111.01;-85.69;113.67;0.0;981.98;49.623;31.26146;34.79971;1003.23;NaN;;;44.42258;;0 / 0;15009;2023-03-30 16:31:34:287
0.1962;9.795;-0.4911;0.4949;9.7804;-0.5781;0.3281;0.095;-0.2143;-0.089;-0.1208;0.1136;2.5825;1.28;-23.73;-30.26;216.25;-86.15;-140.08;0.0;983.46;54.316;31.26146;34.79971;1003.23;NaN;;;44.42258;;0 / 0;15508;2023-03-30 16:31:34:786
0.1537;9.5671;-0.8758;0.2544;9.7801;-0.7213;0.1269;0.0798;0.3332;0.0111;0.0747;-0.2456;3.1587;2.14;-23.51;-29.41;194.6;-85.53;-160.57;0.0;983.02;43.129;31.26146;34.79971;1003.23;NaN;;;44.42258;;0 / 0;16008;2023-03-30 16:31:35:286
0.7801;9.8351;-0.9535;0.2359;9.7445;-1.1069;0.1772;-0.1247;-0.1836;0.0238;0.0582;-0.0377;3.1587;3.7;-24.81;-29.21;183.83;-83.38;-167.97;0.0;984.8;42.496;31.26146;34.79971;1003.23;NaN;;;44.42258;;0 / 0;16509;2023-03-30 16:31:35:787
-1.0427;9.679;-1.8401;0.391;9.7347;-1.1482;0.9124;0.1901;0.0038;0.0838;0.2787;-0.1213;3.1587;3.39;-24.34;-28.84;191.8;-82.9;-161.19;0.0;984.78;45.924;31.26146;34.79971;1003.23;NaN;;;44.42258;;0 / 0;17008;2023-03-30 16:31:36:286
-0.4666;9.3709;-0.8028;0.6677;9.7636;-0.6802;0.6265;0.0847;0.262;-0.0224;-0.0608;-0.3082;3.1587;1.65;-24.38;-29.51;221.37;-82.91;-131.29;0.0;984.4;42.889;31.26146;34.79971;1003.23;NaN;;;44.42258;;0 / 0;17508;2023-03-30 16:31:36:786
0.2112;9.6126;1.5835;0.3704;9.7925;-0.4538;-0.075;-0.215;-0.0472;-0.066;-0.1031;0.0643;3.1587;2.21;-22.89;-31.34;217.11;-86.35;-137.62;0.0;985.22;40.645;31.26146;34.79971;1003.23;NaN;;;44.42258;;0 / 0;18008;2023-03-30 16:31:37:286
0.4181;9.5228;-1.0355;0.3495;9.7743;-0.7591;0.1514;-0.0195;0.0396;0.1242;0.0432;-0.0699;2.3963;1.51;-23.66;-31.35;205.0;-85.51;-149.92;0.0;985.97;47.123;31.26146;34.79971;1003.23;NaN;;;44.42258;;0 / 0;18508;2023-03-30 16:31:37:786
0.0395;10.0744;-1.0834;0.2121;9.7401;-1.1498;-0.1705;0.2172;0.1629;0.0199;-0.015;-0.0397;2.3963;2.85;-25.03;-30.24;184.34;-83.15;-169.55;0.0;984.74;38.887;31.26146;34.79971;1003.23;NaN;;;44.42258;;0 / 0;19008;2023-03-30 16:31:38:286
0.7047;9.594;-1.4955;0.4533;9.7172;-1.2676;0.3808;-0.0017;-0.2276;0.0238;0.1208;-0.1133;2.3963;3.5;-25.57;-29.19;190.63;-82.11;-160.32;0.0;984.58;45.076;31.26146;34.79971;1003.23;NaN;;;44.42258;;0 / 0;19509;2023-03-30 16:31:38:787
0.6335;9.5378;-1.6762;-0.0651;9.7092;-1.4012;0.2106;-0.0182;-0.2332;0.014;0.0257;0.1261;2.3963;5.9;-25.23;-27.79;158.81;-81.94;168.56;0.0;983.22;45.741;31.26146;34.79971;1003.23;NaN;;;44.42258;;0 / 1;20009;2023-03-30 16:31:39:287
0.0173;9.8524;-1.7294;0.3425;9.6975;-1.4415;-0.0279;0.1119;-0.2547;0.0318;-0.121;0.2265;0.6175;5.22;-25.82;-28.11;178.54;-81.73;-171.52;0.0;985.97;40.206;31.26146;34.79971;1003.23;NaN;;;44.42258;;0 / 1;20508;2023-03-30 16:31:39:786
0.3972;9.615;-1.4022;0.2356;9.7068;-1.3992;0.1166;0.1255;0.0725;-0.0284;0.2931;0.0258;0.6175;3.1;-26.14;-29.0;183.72;-81.66;-169.94;0.0;985.74;43.284;31.26146;34.79971;1003.23;NaN;;;44.42258;;0 / 0;21008;2023-03-30 16:31:40:286
0.4941;9.6144;-1.5159;0.3774;9.7151;-1.3077;-0.1732;-0.051;-0.0264;-0.0423;0.0606;-0.1466;0.6175;3.95;-24.97;-28.19;187.16;-82.02;-163.9;0.0;986.86;43.414;31.26146;34.79971;1003.23;NaN;;;44.42258;;0 / 0;21508;2023-03-30 16:31:40:786
0.2118;9.615;-0.8752;0.2426;9.7293;-1.2319;-0.3723;0.2051;0.1064;-0.0848;-0.3829;-0.0089;0.6175;1.22;-25.11;-28.32;190.76;-82.38;-166.02;0.0;984.53;43.181;31.26146;34.79971;1003.23;NaN;;;44.42258;;0 / 0;22009;2023-03-30 16:31:41:287
1.2347;9.0425;-0.2812;0.9159;9.7157;-1.0011;-0.0749;-0.1385;0.0748;0.0052;0.1382;0.0939;0.6175;-0.98;-24.79;-30.02;220.34;-82.05;-137.55;0.0;985.72;39.552;31.26146;34.79971;1003.23;NaN;;;44.42258;;0 / 0;22509;2023-03-30 16:31:41:787
0.5605;10.0726;-1.6169;0.9026;9.7208;-0.9631;1.3012;-0.9369;-0.7646;0.0764;-0.1193;-0.0797;0.6175;-1.22;-24.67;-28.73;219.51;-82.66;-138.66;0.0;982.19;44.98;31.26146;34.79971;1003.23;NaN;;;44.42258;;0 / 0;23009;2023-03-30 16:31:42:287
-1.2018;9.0377;-0.9105;0.184;9.7807;-0.7353;0.0428;0.0152;0.1304;0.0218;0.4855;0.0229;0.6175;0.17;-24.19;-29.18;194.05;-85.68;-165.12;0.0;985.04;40.708;31.26146;34.79971;1003.23;NaN;;;44.42258;;0 / 0;23508;2023-03-30 16:31:42:786
-0.3793;9.737;-0.518;0.2632;9.7809;-0.708;-0.0508;-0.0937;0.1498;-0.0315;0.0096;8.0E-4;0.6175;1.46;-24.0;-29.73;198.75;-85.3;-158.19;0.0;983.52;37.204;31.26146;34.79971;1003.23;NaN;;;44.42258;;0 / 0;24009;2023-03-30 16:31:43:287
0.9565;9.6628;-1.0845;0.997;9.7264;-0.7997;0.0774;-0.0308;0.0461;-0.0057;-0.234;0.024;0.6175;-1.7;-24.39;-28.96;230.66;-82.51;-128.73;0.0;980.77;38.37;31.26146;34.79971;1003.23;NaN;;;44.42258;;0 / 0;24509;2023-03-30 16:31:43:787
-0.9266;9.6359;-0.5168;-0.0066;9.7774;-0.7987;-0.3325;-0.0804;0.1642;0.0217;-0.0907;-0.5999;0.6175;-1.17;-23.84;-29.87;215.23;-84.43;-144.24;0.0;981.97;45.542;31.26146;34.79971;1003.23;NaN;;;44.42258;;0 / 0;25008;2023-03-30 16:31:44:286
-1.3747;9.524;-1.8748;0.0086;9.7407;-1.1641;-0.0443;-0.1132;-0.2116;-0.0053;0.2381;0.2715;0.6175;-2.5;-25.14;-28.38;185.95;-83.18;-179.58;0.0;987.24;47.89;31.26146;34.79971;1003.23;NaN;;;44.42258;;0 / 0;25508;2023-03-30 16:31:44:786
0.1675;9.6263;-1.3938;0.1314;9.7167;-1.3437;-0.3918;-0.0843;-0.15;0.0312;-0.3326;-0.2311;0.6175;-2.39;-24.96;-28.68;199.17;-82.1;-162.71;0.0;984.8;37.904;31.26146;34.79971;1003.23;NaN;;;44.42258;;0 / 0;26009;2023-03-30 16:31:45:287
0.0802;9.6742;-1.2473;-0.1088;9.734;-1.2142;-0.0908;-0.0889;0.0962;0.0067;-0.352;-0.068;0.6175;-1.81;-25.14;-28.55;178.93;-82.86;174.88;0.0;985.28;36.986;31.26146;34.79971;1003.23;NaN;;;44.42258;;0 / 0;26508;2023-03-30 16:31:45:786
-0.3272;9.6814;-1.188;-0.2359;9.7463;-1.0913;0.5396;0.0414;-0.0351;-0.0102;-0.4342;-0.0863;0.6175;-1.81;-24.29;-28.67;176.62;-83.42;172.38;0.0;984.11;44.086;31.26146;34.79971;1003.23;NaN;;;44.42258;;0 / 0;27008;2023-03-30 16:31:46:286
1.0068;9.5773;-1.5075;-0.0481;9.7499;-1.0828;0.4548;-0.1407;-0.2807;-0.0043;-0.2805;-0.0386;0.6175;-0.43;-24.85;-28.79;177.66;-83.66;177.46;0.0;983.91;43.856;31.26146;34.79971;1003.23;NaN;;;44.42258;;0 / 0;27508;2023-03-30 16:31:46:786
-0.0855;9.2931;-1.209;0.0339;9.747;-1.1099;0.0283;-0.2238;-0.1182;0.013;-0.1268;-0.0365;0.6175;-1.62;-24.75;-28.15;185.33;-83.5;-178.25;0.0;984.04;36.44;31.26146;34.79971;1003.23;NaN;;;44.42258;;0 / 0;28008;2023-03-30 16:31:47:286
-0.2076;9.6431;-1.2873;-0.1331;9.7302;-1.2415;0.0184;0.0024;-0.0214;0.0053;-0.1168;0.0849;0.6175;-1.2;-25.44;-29.22;176.24;-82.69;173.88;0.0;983.7;45.68;31.26146;34.79971;1003.23;NaN;;;44.42258;;0 / 0;28508;2023-03-30 16:31:47:786
0.5683;9.8507;-0.8596;0.2604;9.7387;-1.152;0.3578;0.0622;0.3414;-0.0432;-0.1193;0.0154;0.6175;-3.93;-25.38;-29.65;198.89;-83.06;-166.98;0.0;983.74;51.486;31.26146;34.79971;1003.23;NaN;;;44.42258;;0 / 0;29008;2023-03-30 16:31:48:286
1.0666;9.6808;-0.9888;0.3393;9.7428;-1.0948;0.3471;-0.004;0.1461;-0.0351;0.0733;-0.0263;0.6175;-6.17;-24.92;-29.76;203.31;-83.1;-165.93;0.0;985.06;54.162;31.26146;34.79971;1003.23;NaN;;;44.42258;;0 / 0;29508;2023-03-30 16:31:48:786
0.015;9.7968;-0.6203;0.1417;9.7571;-1.0077;-0.2134;-0.0072;0.1069;-0.0235;0.1017;-0.048;0.6175;-3.57;-25.16;-28.43;194.86;-84.05;-172.0;0.0;984.34;52.627;31.26146;34.79971;1003.23;NaN;;;44.42258;;0 / 0;30009;2023-03-30 16:31:49:287
-0.1017;9.8088;-1.1348;-0.0976;9.7463;-1.1119;-0.2081;0.0356;-0.0173;0.0428;-0.0767;0.0194;0.6175;-2.88;-25.63;-28.89;180.81;-83.47;174.98;0.0;984.16;44.006;31.26146;34.79971;1003.23;NaN;;;44.42258;;0 / 0;30508;2023-03-30 16:31:49:786
-0.1053;9.6903;-1.3962;-0.0107;9.7256;-1.2839;-0.1885;0.016;-0.0629;0.0351;-0.0614;0.0473;0.6175;-2.79;-25.06;-28.5;183.26;-82.65;177.7;0.0;984.27;40.083;31.26146;34.79971;1003.23;NaN;;;44.42258;;0 / 0;31009;2023-03-30 16:31:50:287
0.2542;9.5689;-1.6122;0.1256;9.7258;-1.2762;0.2071;0.0011;0.1696;-0.0047;0.029;-0.0391;0.6175;-3.39;-25.24;-28.22;191.97;-82.58;-172.87;0.0;984.33;42.967;31.26146;34.79971;1003.23;NaN;;;44.42258;;0 / 0;31509;2023-03-30 16:31:50:787
-0.8279;10.0098;-1.2455;-0.0612;9.7141;-1.3667;-0.4753;0.1888;0.1086;9.0E-4;-0.099;-0.0182;0.6175;-3.79;-25.8;-27.91;187.91;-82.2;-179.31;0.0;985.14;47.889;31.26146;34.79971;1003.23;NaN;;;44.42258;;0 / 0;32008;2023-03-30 16:31:51:286
0.1519;9.6162;-1.2419;0.0947;9.7255;-1.2813;0.0119;-0.0943;0.017;-0.0035;0.0539;0.0231;0.6175;-5.43;-25.56;-28.71;192.66;-82.47;-175.77;0.0;984.47;39.439;31.26146;34.79971;1003.23;NaN;;;44.42258;;0 / 0;32509;2023-03-30 16:31:51:787
0.0909;9.7125;-1.3663;-0.1045;9.7438;-1.1329;0.2822;-0.0668;0.0135;-0.0116;0.1833;-0.1243;0.6175;-2.22;-24.85;-28.07;184.3;-83.28;-179.37;0.0;983.85;39.737;31.26146;34.79971;1003.23;NaN;;;44.42258;;0 / 0;33009;2023-03-30 16:31:52:287
0.1609;9.7633;-1.0193;-0.0419;9.7353;-1.2078;0.2865;0.0065;0.1359;0.0168;-0.1518;0.0186;0.6175;-3.35;-24.99;-29.33;183.57;-82.92;178.02;0.0;984.05;46.606;31.26146;34.79971;1003.23;NaN;;;44.42258;;0 / 0;33508;2023-03-30 16:31:52:786
-0.4546;10.0684;-1.0911;0.0037;9.7378;-1.188;0.0424;0.0061;-0.1625;-0.0608;-0.2575;0.0304;0.6175;-4.37;-25.35;-28.35;187.54;-82.82;-179.82;0.0;985.2;43.003;31.26146;34.79971;1003.23;NaN;;;44.42258;;0 / 0;34009;2023-03-30 16:31:53:287
-0.2495;9.7573;-1.3167;-0.0424;9.7415;-1.1563;0.4379;-0.2005;0.1403;-0.0027;0.0121;-0.2149;0.6175;-5.31;-24.62;-29.22;195.3;-83.23;-173.07;0.0;984.43;43.558;31.26146;34.79971;1003.23;NaN;;;44.42258;;0 / 0;34508;2023-03-30 16:31:53:786
-0.9607;9.5049;-1.3394;-0.4538;9.7113;-1.312;0.8785;-0.0396;-0.1025;0.031;-0.0402;0.0617;0.6175;-1.7;-25.62;-28.94;168.42;-82.57;161.08;0.0;984.07;42.682;31.26146;34.79971;1003.23;NaN;;;44.42258;;0 / 0;35008;2023-03-30 16:31:54:286
0.0837;9.8686;-0.8201;-0.3821;9.7125;-1.3257;-0.6954;0.1413;-0.3622;-0.0524;-0.0935;0.0353;0.6175;-4.86;-25.64;-28.38;174.68;-81.91;163.92;0.0;985.86;36.275;31.26146;34.79971;1003.23;NaN;;;44.42258;;0 / 0;35509;2023-03-30 16:31:54:787
-0.265;9.6999;-1.188;-0.3687;9.7287;-1.2049;0.1537;-0.0799;-0.1236;-0.0226;0.2326;-0.0192;0.6175;-1.99;-24.86;-28.96;168.56;-82.54;163.44;0.0;984.21;36.619;31.26146;34.79971;1003.23;NaN;;;44.42258;;0 / 0;36009;2023-03-30 16:31:55:287
0.1089;9.7071;-1.1521;-0.0832;9.7389;-1.176;0.554;-0.0891;0.0855;-0.0082;-0.1539;0.0212;0.6175;-2.07;-24.6;-29.48;179.91;-83.1;175.95;0.0;984.32;38.705;31.26146;34.79971;1003.23;NaN;;;44.42258;;0 / 0;36509;2023-03-30 16:31:55:787
-0.4086;9.6443;-1.2694;-0.0629;9.7352;-1.2077;-0.3524;-0.0743;0.1975;0.0292;-0.0782;0.0086;0.6175;-3.35;-24.89;-29.23;183.79;-82.99;178.25;0.0;984.23;40.91;31.26146;34.79971;1003.23;NaN;;;44.42258;;0 / 0;37009;2023-03-30 16:31:56:287
0.2166;9.7543;-1.4471;-0.1512;9.7225;-1.2988;0.4042;-0.2256;0.0712;-0.0243;-0.182;-0.0209;0.6175;-3.7;-26.0;-27.71;181.34;-82.34;173.36;0.0;984.1;35.837;31.26146;34.79971;1003.23;NaN;;;44.42258;;0 / 0;37509;2023-03-30 16:31:56:787
-0.7579;9.6873;-0.6018;-0.2421;9.7513;-1.0438;-0.3986;-0.1695;0.2447;-0.1136;0.1187;-0.0985;0.0275;-5.97;-24.64;-30.06;178.39;-83.73;166.94;0.0;985.28;40.08;31.26146;34.79971;1003.23;NaN;;;44.42258;;0 / 0;38008;2023-03-30 16:31:57:286
0.4726;9.7783;1.413;-0.8635;9.7029;1.1596;1.2601;0.0561;0.3668;-0.2506;-0.3149;-0.2254;0.0275;-9.47;-19.18;-33.48;56.35;-83.75;38.03;0.0;983.83;43.87;31.26146;34.79971;1003.23;NaN;;;44.42258;;0 / 0;38509;2023-03-30 16:31:57:787
-0.1585;9.8004;1.8748;-0.6143;9.6479;1.6661;0.47;0.1537;0.2072;-0.0331;0.0464;0.0454;0.0275;-8.08;-17.64;-36.97;37.41;-79.53;21.72;0.0;983.81;42.155;31.26146;34.79971;1003.23;NaN;;;44.42258;;0 / 0;39009;2023-03-30 16:31:58:287
-0.8841;9.3912;1.6295;-0.7329;9.6605;1.541;-0.1236;-0.2711;0.1143;0.0191;0.1093;-0.0214;0.0275;-6.19;-17.3;-35.09;38.59;-79.98;25.44;0.0;984.47;43.366;31.26146;34.79971;1003.23;NaN;;;44.42258;;0 / 0;39509;2023-03-30 16:31:58:787
-0.4217;9.5839;1.5553;-0.7368;9.6695;1.4813;0.0566;0.0115;0.1521;-9.0E-4;-0.0461;0.0075;0.0275;-7.47;-17.97;-34.93;41.41;-80.29;26.45;0.0;983.86;42.052;31.26146;34.79971;1003.23;NaN;;;44.42258;;0 / 0;40009;2023-03-30 16:31:59:287
-0.8536;9.5629;1.5338;-0.703;9.6771;1.4474;-0.1525;-0.1146;0.0884;0.0038;0.1633;0.0281;0.0275;-7.65;-18.64;-35.32;43.02;-80.45;26.29;0.0;984.18;42.614;31.26146;34.79971;1003.23;NaN;;;44.42258;;0 / 0;40509;2023-03-30 16:31:59:787
-0.9703;9.7884;1.3274;-0.694;9.6745;1.4689;-0.3258;0.0131;-0.0207;-0.0087;-0.1084;-0.0232;0.0275;-6.97;-17.68;-35.21;40.2;-80.55;25.42;0.0;984.05;40.091;31.26146;34.79971;1003.23;NaN;;;44.42258;;0 / 0;41009;2023-03-30 16:32:00:287
-0.6239;9.5276;1.5781;-0.7897;9.6628;1.4973;0.2052;0.0565;-0.075;-0.0163;0.0305;-0.002;0.0275;-7.15;-18.74;-35.7;42.74;-80.06;27.81;0.0;983.65;46.376;31.26146;34.79971;1003.23;NaN;;;44.42258;;0 / 0;41509;2023-03-30 16:32:00:787
-1.136;9.7173;1.6265;-0.8191;9.6539;1.5386;-0.1663;-0.4661;0.3078;0.0136;0.0611;0.0079;0.0275;-7.44;-18.08;-35.62;42.49;-79.74;27.21;0.0;983.99;41.316;31.26146;34.79971;1003.23;NaN;;;44.42258;;0 / 0;42009;2023-03-30 16:32:01:287
-0.9577;9.2411;0.926;-0.8897;9.6527;1.5068;0.0546;0.1119;0.1104;0.0113;0.0286;-0.0026;0.0275;-8.33;-18.07;-35.06;46.89;-79.65;29.74;0.0;984.16;43.7;31.26146;34.79971;1003.23;NaN;;;44.42258;;0 / 0;42509;2023-03-30 16:32:01:787
-1.4644;9.8064;1.4195;-1.0206;9.6554;1.4029;0.2774;-0.1033;-0.0028;0.0166;-0.1075;0.0137;0.0275;-6.47;-18.53;-35.37;49.78;-79.76;35.77;0.0;984.28;42.399;31.26146;34.79971;1003.23;NaN;;;44.42258;;0 / 0;43009;2023-03-30 16:32:02:287
-0.7507;9.7107;1.4195;-0.821;9.6845;1.3315;0.3297;0.0271;-0.2294;0.018;0.0217;0.0134;0.0275;-7.22;-18.28;-36.11;46.27;-80.62;31.55;0.0;983.72;42.634;31.26146;34.79971;1003.23;NaN;;;44.42258;;0 / 0;43509;2023-03-30 16:32:02:787
-1.0594;9.5264;1.4279;-0.5767;9.7037;1.3196;-0.1215;-0.1149;0.3987;0.0232;-0.0622;0.1151;0.0275;-6.88;-18.81;-34.77;42.37;-81.24;27.58;0.0;984.41;38.568;31.26146;34.79971;1003.23;NaN;;;44.42258;;0 / 0;44009;2023-03-30 16:32:03:287
-0.07;9.8315;0.7819;-0.2845;9.7634;0.912;0.0153;0.0706;0.0787;0.0964;-0.115;-0.062;0.0275;-7.25;-19.86;-35.56;29.97;-84.41;17.33;0.0;983.57;46.823;31.26146;34.79971;1003.23;NaN;;;44.42258;;0 / 0;44509;2023-03-30 16:32:03:787
0.3793;9.7825;0.1567;0.195;9.7915;0.5699;0.4828;0.2575;-0.0346;-0.011;-0.9125;0.2133;0.0275;-11.22;-19.96;-33.73;40.75;-85.96;22.8;0.0;983.93;36.319;31.26146;34.79971;1003.23;NaN;;;44.42258;;0 / 1;45009;2023-03-30 16:32:04:287
0.0036;9.3141;1.4315;-1.9166;9.5905;0.765;1.7988;-0.4609;1.084;-0.2674;0.006;-0.2237;0.0275;-14.42;-22.64;-29.19;103.77;-82.76;73.05;0.0;983.5;45.185;31.26146;34.79971;1003.23;NaN;;;44.42258;;0 / 1;45508;2023-03-30 16:32:04:786
1.3603;9.6437;1.0911;1.1776;9.66;1.2383;1.1305;0.0406;-0.5027;-0.1003;0.369;0.5878;0.0275;-17.98;-16.75;-30.71;0.24;-82.57;-29.91;0.0;984.43;44.704;31.26146;34.79971;1003.23;NaN;;;44.42258;;0 / 4;46008;2023-03-30 16:32:05:286
1.1043;9.932;1.0169;1.6764;9.6168;0.9711;-0.4421;-0.0059;0.386;0.4291;-0.257;-0.2106;0.0275;-21.73;-16.1;-29.6;333.72;-78.61;-59.92;0.0;983.96;43.747;31.26146;34.79971;1003.23;NaN;;;44.42258;;0 / 4;46509;2023-03-30 16:32:05:787
1.0606;8.8104;-0.3523;2.8961;9.3054;-1.1216;-1.4494;-0.4872;0.4814;0.1319;0.8441;-0.3149;0.0275;-25.18;-16.95;-23.09;286.68;-71.65;-110.76;0.0;983.52;42.222;31.26146;34.79971;1003.23;NaN;;;44.42258;;0 / 5;47011;2023-03-30 16:32:06:289
1.1127;9.9817;0.4798;0.9748;9.7499;0.4755;0.1022;0.0453;0.1614;-0.2573;-0.0953;-0.0531;0.0275;-13.37;-17.19;-30.89;300.8;-83.91;-79.16;0.0;983.87;39.531;31.26146;34.79971;1003.23;NaN;;;44.42258;;0 / 5;47508;2023-03-30 16:32:06:786
1.6672;9.6987;1.1976;1.5635;9.6244;1.0785;-0.2084;-0.0279;0.0322;-0.0609;0.2283;0.146;0.0275;-11.3;-14.33;-31.07;322.51;-79.76;-55.95;0.0;984.57;43.313;31.26146;34.79971;1003.23;NaN;;;44.42258;;0 / 4;48008;2023-03-30 16:32:07:286
2.4999;9.2973;0.9248;2.1006;9.5213;1.0813;0.3995;-0.2239;-0.1566;0.0047;-0.0218;-0.0884;0.0275;-10.64;-14.79;-30.52;312.73;-76.19;-61.31;0.0;984.25;40.715;31.26146;34.79971;1003.23;NaN;;;44.42258;;0 / 4;48509;2023-03-30 16:32:07:787
1.2443;9.5731;1.1671;1.3497;9.6565;1.0801;-0.1052;-0.0833;0.0868;-0.0228;-0.2169;-0.117;0.0;-11.11;-15.36;-30.73;325.14;-79.85;-51.33;0.0;983.53;41.974;31.26146;34.79971;1003.23;NaN;;;44.42258;;0 / 4;49008;2023-03-30 16:32:08:286
1.1976;9.6455;1.0098;1.154;9.6882;1.0215;0.0444;-0.057;-0.0831;-2.0E-4;-0.022;-0.0281;0.0;-11.3;-15.19;-31.26;327.94;-80.84;-49.05;0.0;983.77;38.969;31.26146;34.79971;1003.23;NaN;;;44.42258;;0 / 4;49508;2023-03-30 16:32:08:786
1.1498;9.6317;0.9763;1.1994;9.6841;1.0079;0.167;-0.0397;-0.121;-0.0098;0.0086;-0.006;0.0;-11.02;-15.46;-31.04;327.33;-80.88;-49.63;0.0;983.97;40.847;31.26146;34.79971;1003.23;NaN;;;44.42258;;0 / 4;50009;2023-03-30 16:32:09:287
1.1498;9.655;1.0666;1.1027;9.6835;1.118;-0.073;-0.0272;-0.048;-0.0272;-0.0341;-0.0195;0.0;-11.21;-14.7;-30.85;331.18;-80.8;-46.03;0.0;983.99;42.059;31.26146;34.79971;1003.23;NaN;;;44.42258;;0 / 4;50509;2023-03-30 16:32:09:787
0.9224;9.67;1.4028;0.8627;9.6871;1.2856;-0.1656;-0.1061;0.0679;-0.0331;-0.0522;-0.057;0.0;-10.71;-15.08;-31.12;341.31;-80.86;-36.76;0.0;983.79;50.155;31.26146;34.79971;1003.23;NaN;;;44.42258;;0 / 3;51009;2023-03-30 16:32:10:287
0.5761;9.6718;1.538;0.653;9.6909;1.377;-0.0122;-0.0609;-0.2191;-0.0551;-0.087;-0.0663;0.0;-11.32;-14.79;-30.46;350.85;-81.15;-28.52;0.0;983.67;47.681;31.26146;34.79971;1003.23;NaN;;;44.42258;;0 / 3;51509;2023-03-30 16:32:10:787
0.932;9.6275;1.2981;0.5986;9.6944;1.3773;-0.1599;-0.0063;-0.0591;0.0953;0.053;0.1723;0.0;-10.5;-14.52;-31.54;355.09;-81.19;-23.49;0.0;983.85;43.008;31.26146;34.79971;1003.23;NaN;;;44.42258;;0 / 3;52009;2023-03-30 16:32:11:287
1.6397;9.6;0.856;1.2161;9.6837;0.9911;0.1838;-0.0489;-0.1131;0.0406;0.0315;0.0641;0.0;-11.7;-15.47;-30.96;327.79;-80.8;-50.82;0.0;983.86;44.384;31.26146;34.79971;1003.23;NaN;;;44.42258;;0 / 3;52508;2023-03-30 16:32:11:786
1.1976;9.6407;1.0714;1.0803;9.6913;1.0711;-0.0022;-0.026;-0.0627;-0.016;0.0257;-0.0076;0.0;-11.33;-15.26;-30.15;331.87;-81.11;-46.01;0.0;983.67;47.531;31.26146;34.79971;1003.23;NaN;;;44.42258;;0 / 2;53009;2023-03-30 16:32:12:287
0.9769;9.6275;1.1133;1.0557;9.688;1.1248;-0.1606;-0.055;0.0445;-0.0096;-0.0202;-0.0052;0.0;-10.72;-14.98;-30.93;334.28;-80.95;-43.19;0.0;983.94;44.67;31.26146;34.79971;1003.23;NaN;;;44.42258;;0 / 2;53509;2023-03-30 16:32:12:787
1.2168;9.6592;1.1001;1.1308;9.6719;1.188;-0.0832;-0.1023;0.0441;-0.0079;-0.0023;-0.0131;0.0;-11.96;-15.02;-31.99;333.73;-80.41;-45.2;0.0;984.28;52.262;31.26146;34.79971;1003.23;NaN;;;44.42258;;0 / 1;54008;2023-03-30 16:32:13:286
1.1683;9.6359;1.1761;1.1876;9.6651;1.1881;0.0239;-0.0393;-0.0307;-0.0061;-0.0171;-0.0024;0.0;-11.7;-15.37;-31.06;334.1;-80.16;-44.8;0.0;984.17;46.144;31.26146;34.79971;1003.23;NaN;;;44.42258;;0 / 1;54509;2023-03-30 16:32:13:787
1.2688;9.6257;1.139;1.1264;9.6688;1.2171;0.0366;-0.0238;0.0013;8.0E-4;0.0061;0.0064;0.0;-11.09;-15.01;-31.74;333.97;-80.27;-42.78;0.0;984.0;50.537;31.26146;34.79971;1003.23;NaN;;;44.42258;;0 / 1;55009;2023-03-30 16:32:14:287
1.3555;9.6251;1.0917;1.1168;9.6662;1.2462;0.1904;-0.0362;-0.0458;-0.0334;-0.069;-0.0594;0.0;-11.77;-14.91;-31.49;336.81;-80.2;-42.31;0.0;984.04;47.189;31.26146;34.79971;1003.23;NaN;;;44.42258;;0 / 1;55508;2023-03-30 16:32:14:786
1.0092;9.6365;1.2843;1.0787;9.6683;1.2635;-0.18;-0.0263;0.0721;-0.0144;-0.0078;-0.026;0.0;-11.66;-15.12;-31.98;336.74;-80.2;-41.82;0.0;984.0;52.685;31.26146;34.79971;1003.23;NaN;;;44.42258;;0 / 1;56009;2023-03-30 16:32:15:287
0.8853;9.6999;1.212;1.002;9.675;1.2753;-0.1165;0.025;-0.0635;-0.011;6.0E-4;-0.0041;0.0;-11.98;-15.1;-31.49;340.06;-80.39;-39.37;0.0;983.77;51.994;31.26146;34.79971;1003.23;NaN;;;44.42258;;0 / 1;56508;2023-03-30 16:32:15:786
1.0044;9.6126;1.2843;1.0809;9.6661;1.2783;-0.0763;-0.0534;0.0058;0.0104;0.0392;0.0287;0.0;-11.87;-15.1;-31.78;338.47;-80.17;-40.22;0.0;983.97;53.341;31.26146;34.79971;1003.23;NaN;;;44.42258;;0 / 1;57008;2023-03-30 16:32:16:286
0.9942;9.6174;1.337;1.0531;9.6699;1.2727;-0.0294;-0.062;0.0073;0.0081;-0.0154;-0.0108;0.0;-11.59;-15.19;-31.27;339.78;-80.31;-39.61;0.0;983.89;43.507;31.26146;34.79971;1003.23;NaN;;;44.42258;;0 / 1;57508;2023-03-30 16:32:16:786
1.0193;9.6317;1.2084;1.06;9.6771;1.2113;0.0026;-0.0405;-0.0121;0.0023;-0.0099;-0.0044;0.0;-11.81;-15.08;-30.57;337.28;-80.54;-40.32;0.0;983.94;36.11;31.26146;34.79971;1003.23;NaN;;;44.42258;;0 / 1;58009;2023-03-30 16:32:17:287
1.1007;9.6359;1.1803;1.0925;9.6735;1.2111;-0.0156;-0.0464;-0.0454;-0.005;-0.0066;0.006;0.0;-11.87;-14.92;-31.59;336.77;-80.48;-41.85;0.0;983.98;43.345;31.26146;34.79971;1003.23;NaN;;;44.42258;;0 / 1;58509;2023-03-30 16:32:17:787
1.0959;9.6359;1.2233;1.1611;9.6655;1.2106;0.0504;-0.0301;-0.0245;0.002;-0.005;0.0162;0.0;-11.49;-15.19;-31.16;333.38;-80.15;-43.81;0.0;984.08;46.317;31.26146;34.79971;1003.23;NaN;;;44.42258;;0 / 1;59009;2023-03-30 16:32:18:287
1.2203;9.6114;1.2335;1.1786;9.6627;1.2163;0.1137;-0.0566;-0.0201;0.0061;-0.017;-3.0E-4;0.0;-11.72;-15.08;-30.27;335.47;-80.06;-44.1;0.0;984.01;40.088;31.26146;34.79971;1003.23;NaN;;;44.42258;;0 / 1;59509;2023-03-30 16:32:18:787
1.2114;9.6072;1.148;1.1743;9.667;1.1858;0.0324;-0.0501;-0.0572;0.0;-6.0E-4;-0.0151;0.0;-12.09;-15.29;-31.09;333.63;-80.15;-45.22;0.0;984.03;43.86;31.26146;34.79971;1003.23;NaN;;;44.42258;;0 / 1;60009;2023-03-30 16:32:19:287
1.1145;9.588;1.2239;1.1412;9.6667;1.2205;0.041;-0.045;-0.0303;-0.002;0.0144;-0.0021;0.0;-11.79;-14.91;-31.18;333.63;-80.22;-43.6;0.0;983.9;38.256;31.26146;34.79971;1003.23;NaN;;;44.42258;;0 / 1;60509;2023-03-30 16:32:19:787
1.1533;9.6215;1.2144;1.1374;9.6663;1.2267;0.0358;-0.0495;-0.0646;-0.0011;-3.0E-4;-0.0041;0.0;-11.6;-15.19;-31.06;336.23;-80.18;-42.84;0.0;983.98;40.134;31.26146;34.79971;1003.23;NaN;;;44.42258;;0 / 0;61009;2023-03-30 16:32:20:287
1.1438;9.6168;1.2191;1.0938;9.6675;1.2569;0.0358;-0.0554;-0.0194;-0.0053;0.0086;-0.0089;0.0;-11.41;-15.37;-30.85;336.17;-80.23;-41.27;0.0;983.91;37.67;31.26146;34.79971;1003.23;NaN;;;44.42258;;0 / 0;61509;2023-03-30 16:32:20:787
1.1486;9.655;1.2616;1.0406;9.6684;1.2943;-0.0551;-0.0504;-0.0054;-0.005;-0.0061;-0.0018;0.0;-11.49;-15.29;-31.26;338.86;-80.25;-38.8;0.0;983.85;36.918;31.26146;34.79971;1003.23;NaN;;;44.42258;;0 / 0;62008;2023-03-30 16:32:21:286
1.1001;9.6263;1.3232;1.0531;9.6609;1.3395;0.0041;-0.0434;-0.0308;-0.0049;0.0038;0.0067;0.0;-11.49;-14.91;-31.27;339.44;-80.04;-38.22;0.0;984.03;34.077;31.26146;34.79971;1003.23;NaN;;;44.42258;;0 / 0;62509;2023-03-30 16:32:21:787
1.0804;9.6024;1.3663;1.1076;9.6525;1.3558;0.0309;-0.0404;-0.0041;0.0032;0.0092;0.0128;0.0;-11.19;-14.35;-31.57;339.08;-79.81;-38.5;0.0;984.03;38.884;31.26146;34.79971;1003.23;NaN;;;44.42258;;0 / 0;63009;2023-03-30 16:32:22:287
1.215;9.6066;1.2861;1.1484;9.6551;1.3027;0.0667;-0.0484;-0.0168;0.0368;0.0744;0.0308;0.0;-11.68;-14.44;-31.49;337.83;-79.8;-41.4;0.0;983.9;43.107;31.26146;34.79971;1003.23;NaN;;;44.42258;;0 / 0;63509;2023-03-30 16:32:22:787
1.4327;9.5677;0.9882;1.2677;9.6698;1.0601;0.1652;-0.102;-0.0721;0.0754;0.1187;0.0087;0.0;-10.27;-15.4;-32.61;325.44;-79.93;-48.52;0.0;984.03;37.401;31.26146;34.79971;1003.23;NaN;;;44.42258;;0 / 0;64009;2023-03-30 16:32:23:287
0.6437;9.655;0.7591;0.8616;9.7325;0.8784;-0.2178;-0.0774;-0.1195;-0.0119;-0.1568;-0.073;0.0;-11.77;-16.24;-31.74;332.35;-82.56;-46.39;0.0;983.9;36.644;31.26146;34.79971;1003.23;NaN;;;44.42258;;0 / 0;64509;2023-03-30 16:32:23:787
1.1174;9.6371;0.862;0.974;9.7136;0.9665;0.1962;-0.0435;-0.0951;-0.0134;0.0209;0.0272;0.0;-11.7;-15.57;-30.96;334.02;-81.96;-45.22;0.0;984.15;53.348;31.26146;34.79971;1003.23;NaN;;;44.42258;;0 / 0;65009;2023-03-30 16:32:24:287
1.0158;9.6568;0.9996;1.0302;9.7026;1.0167;-0.043;-0.0553;-0.0083;-0.0148;-0.0356;-0.0179;0.0;-12.16;-15.2;-31.79;332.49;-81.5;-46.09;0.0;984.02;43.203;31.26146;34.79971;1003.23;NaN;;;44.42258;;0 / 0;65509;2023-03-30 16:32:24:787
0.987;9.6664;1.0469;1.0129;9.6996;1.0622;-0.0305;-0.0379;-0.0155;-0.0089;-0.0034;-0.0058;0.0;-12.32;-15.9;-32.99;333.07;-81.38;-44.88;0.0;983.98;49.448;31.26146;34.79971;1003.23;NaN;;;44.42258;;0 / 0;66008;2023-03-30 16:32:25:286
0.8572;9.6431;1.1031;0.9491;9.7006;1.111;0.0142;-0.0245;-0.0266;-0.0191;-0.0341;-0.0464;0.0;-12.44;-15.88;-32.2;338.35;-81.43;-40.51;0.0;983.91;38.063;31.26146;34.79971;1003.23;NaN;;;44.42258;;0 / 0;66509;2023-03-30 16:32:25:787
0.9194;9.652;1.1174;0.8918;9.703;1.1371;0.0039;-0.0413;-0.0295;-0.0128;-0.0047;-0.0199;0.0;-12.07;-15.2;-31.79;341.3;-81.52;-38.79;0.0;983.86;37.437;31.26146;34.79971;1003.23;NaN;;;44.42258;;0 / 1;67008;2023-03-30 16:32:26:286
0.4582;9.679;1.2335;0.9204;9.7001;1.1391;0.0512;-0.0724;0.0786;0.0084;-0.0021;0.0238;0.0;-11.41;-15.47;-31.05;341.19;-81.55;-36.92;0.0;984.0;55.244;31.26146;34.79971;1003.23;NaN;;;44.42258;;0 / 1;67508;2023-03-30 16:32:26:786
1.3298;10.273;-0.1573;-0.4107;9.7268;1.2066;1.5151;-0.1602;-0.6343;-0.0246;-3.2871;-0.9484;0.0;-11.54;-16.38;-29.72;43.38;-82.53;18.8;0.0;983.41;40.271;31.26146;34.79971;1003.23;NaN;;;44.42258;;0 / 0;68008;2023-03-30 16:32:27:286
-1.6385;10.0187;2.6596;-0.4976;9.6407;1.7452;1.3622;-1.557;2.4468;-0.1177;-2.7939;0.2156;0.0;-23.4;-23.4;5.69;128.88;-81.86;35.75;0.0;983.51;39.907;31.26146;34.79971;1003.23;NaN;;;44.42258;;0 / 0;68509;2023-03-30 16:32:27:787
0.3583;9.055;2.7673;2.3913;9.2567;2.198;-1.2898;0.3087;0.4381;0.2723;-0.1529;0.8532;0.0;-28.87;-19.2;5.53;75.37;-71.69;-38.88;0.0;984.29;44.801;31.26146;34.79971;1003.23;NaN;;;44.42258;;0 / 1;69009;2023-03-30 16:32:28:287
10.9645;8.4832;1.2885;7.9481;5.4431;-1.854;-5.6915;-4.4553;-0.5241;0.54;-2.3108;2.5702;0.0;-29.67;1.2;19.13;34.68;-35.98;-99.39;0.0;983.05;43.514;31.26146;34.79971;1003.23;NaN;;;44.42258;;0 / 1;69509;2023-03-30 16:32:28:787
5.1906;13.0875;2.333;-1.7985;9.2406;2.7592;-0.5427;2.257;-4.7532;0.5629;0.8094;1.8211;0.0;-7.99;-11.25;14.31;182.86;-70.38;33.1;0.0;983.92;49.177;31.26146;34.79971;1003.23;NaN;;;44.42258;;0 / 0;70008;2023-03-30 16:32:29:286
-1.8939;18.9978;3.7537;5.5131;8.0598;0.9384;-4.9411;7.4912;2.3001;0.6828;-1.8366;2.8475;0.0;-14.47;-1.21;18.58;80.58;-64.7;-65.15;0.0;985.25;44.129;31.26146;34.79971;1003.23;NaN;;;44.42258;;0 / 0;70509;2023-03-30 16:32:29:787
9.5216;10.8826;1.7815;-3.512;8.851;2.3583;11.5634;0.127;-1.6239;-1.0915;1.6017;-5.0859;0.0;8.23;-19.79;26.63;231.74;-75.25;42.64;0.0;983.26;43.544;31.26146;34.79971;1003.23;NaN;;;44.42258;;0 / 1;71009;2023-03-30 16:32:30:287
2.8493;9.1621;0.9661;2.1797;9.5114;1.0089;-2.1741;-0.4575;1.4562;0.4462;-0.2553;1.128;0.0;-3.75;-19.51;36.83;115.01;-75.83;-65.16;0.0;985.29;53.752;31.26146;34.79971;1003.23;NaN;;;44.42258;;0 / 1;71508;2023-03-30 16:32:30:786
5.0393;3.6562;-6.3852;7.7589;5.5468;-2.2952;0.2082;-1.2564;-6.0625;-1.2778;-0.7685;-0.5728;0.0;-4.5;-3.92;36.89;74.65;-39.91;-112.23;0.0;983.01;42.602;31.26146;34.79971;1003.23;NaN;;;44.42258;;0 / 1;72008;2023-03-30 16:32:31:286
-3.2889;6.3236;-0.859;-1.295;9.5455;-1.8556;-0.5048;0.9208;-1.3378;0.37;0.8563;0.0977;0.0;15.05;-5.88;28.68;26.86;-82.05;-172.28;0.0;982.73;46.331;31.26146;34.79971;1003.23;NaN;;;44.42258;;0 / 1;72508;2023-03-30 16:32:31:786
-0.5946;10.1551;-0.8016;-1.0276;9.6408;-1.4949;-0.1232;0.0759;0.2253;-0.016;-0.2515;-0.1445;0.0;14.21;-6.3;27.56;351.62;-79.34;145.5;0.0;983.77;46.807;31.26146;34.79971;1003.23;NaN;;;44.42258;;0 / 0;73009;2023-03-30 16:32:32:287
-1.2706;9.0975;-1.2957;-1.6744;9.5286;-1.6244;-0.0692;0.3599;0.1933;0.0783;0.1217;-0.0884;0.0;16.46;-4.48;27.61;342.92;-76.24;134.13;0.0;984.7;43.668;31.26146;34.79971;1003.23;NaN;;;44.42258;;0 / 0;73509;2023-03-30 16:32:32:787
-1.4052;8.9749;-1.4052;-1.6839;9.5246;-1.638;0.1861;-0.8349;0.1238;-0.042;-0.0718;-0.0014;0.0;17.43;-4.07;28.05;346.24;-75.89;135.79;0.0;985.52;47.724;31.26146;34.79971;1003.23;NaN;;;44.42258;;0 / 0;74009;2023-03-30 16:32:33:287
-2.3432;9.935;-1.2826;-1.9718;9.5254;-1.2712;-0.3712;0.4097;-0.0116;-0.0047;-5.0E-4;-0.118;0.0;18.58;-4.97;25.61;341.01;-76.72;125.99;0.0;982.43;50.3;31.26146;34.79971;1003.23;NaN;;;44.42258;;0 / 0;74508;2023-03-30 16:32:33:786
-2.1206;9.4546;-0.6987;-2.2616;9.5009;-0.924;0.1411;-0.0462;0.2251;-0.0305;0.1095;0.0502;0.0;20.56;-5.05;25.0;330.4;-75.32;112.28;0.0;983.16;44.443;31.26146;34.79971;1003.23;NaN;;;44.42258;;0 / 0;75008;2023-03-30 16:32:34:286
-1.8491;9.4684;-1.1348;-2.0292;9.5604;-0.8467;0.3717;0.0349;-0.116;0.055;0.7222;0.0646;0.0;20.35;-5.89;25.61;320.41;-76.66;105.16;0.0;983.27;41.452;31.26146;34.79971;1003.23;NaN;;;44.42258;;0 / 0;75508;2023-03-30 16:32:34:786
-3.2865;9.5557;0.3159;-2.261;9.5459;0.0128;-1.934;-0.075;0.578;-0.0513;0.6804;0.1278;0.0;25.39;-6.6;21.24;316.91;-76.67;89.68;0.0;986.87;41.442;31.26146;34.79971;1003.23;NaN;;;44.42258;;0 / 0;76009;2023-03-30 16:32:35:287
-2.3414;9.3882;3.143;-1.6831;9.226;2.8781;1.81;-0.488;1.1919;0.1109;0.0524;0.0707;0.0;29.5;-12.3;9.02;275.65;-70.15;31.41;0.0;983.15;53.558;31.26146;34.79971;1003.23;NaN;;;44.42258;;0 / 0;76508;2023-03-30 16:32:35:786
-2.0405;9.3805;1.8227;-1.7257;9.4118;2.1625;0.8231;-0.1479;-0.7551;-0.035;-0.4088;-0.1449;0.0;26.85;-12.48;14.84;270.2;-72.68;34.21;0.0;983.13;45.148;31.26146;34.79971;1003.23;NaN;;;44.42258;;0 / 0;77009;2023-03-30 16:32:36:287
-1.943;9.3924;2.3037;-2.074;9.3332;2.1968;-0.3007;-0.2278;-0.1757;0.0235;0.1869;-0.011;0.0;29.74;-10.59;13.6;281.72;-72.06;43.35;0.0;983.54;44.286;31.26146;34.79971;1003.23;NaN;;;44.42258;;0 / 0;77509;2023-03-30 16:32:36:787
-2.4431;9.3619;2.4909;-2.3175;9.2687;2.2262;-0.4904;-0.0377;0.2531;-0.0275;0.0403;-0.0388;0.0;29.06;-10.22;13.57;284.55;-71.37;46.88;0.0;983.69;41.71;31.26146;34.79971;1003.23;NaN;;;44.42258;;0 / 0;78009;2023-03-30 16:32:37:287
-1.8138;9.7549;1.9938;-2.5025;9.2864;1.9331;-0.2072;-0.05;0.1425;0.029;0.0551;0.0373;0.0;27.8;-10.09;15.92;284.19;-70.97;50.65;0.0;984.07;41.293;31.26146;34.79971;1003.23;NaN;;;44.42258;;0 / 0;78508;2023-03-30 16:32:37:786
-2.0871;9.4337;1.6271;-2.5495;9.3319;1.6283;0.307;0.313;-0.1605;0.0258;0.1585;-0.0359;0.0;26.58;-9.31;17.35;289.41;-72.04;57.44;0.0;983.95;40.326;31.26146;34.79971;1003.23;NaN;;;44.42258;;0 / 0;79009;2023-03-30 16:32:38:287
-4.9496;5.2798;-0.3129;-1.2539;9.7295;0.0125;-2.9017;-3.9101;-0.8795;0.2616;0.4023;-0.3073;0.0;19.76;-11.74;21.92;289.47;-83.0;70.01;0.0;984.04;41.062;31.26146;34.79971;1003.23;NaN;;;44.42258;;0 / 0;79508;2023-03-30 16:32:38:786
4.6558;12.7902;0.8524;0.0456;9.8022;-0.3884;-0.8099;-0.5712;-0.4242;-0.4381;0.4757;-0.5889;0.0;14.57;-12.86;25.13;58.59;-85.07;-154.35;0.0;983.99;40.965;31.26146;34.79971;1003.23;NaN;;;44.42258;;0 / 0;80009;2023-03-30 16:32:39:287
9.6281;7.5428;1.4698;3.7678;8.9781;1.1975;3.1321;-0.8789;1.0079;-0.1461;0.4968;0.43;0.0;15.32;-24.73;13.32;163.66;-66.23;-72.37;0.0;985.84;44.448;31.26146;34.79971;1003.23;NaN;;;44.42258;;0 / 0;80509;2023-03-30 16:32:39:787
3.1436;8.8379;1.8066;2.9713;9.2172;1.5653;-0.0082;-0.2392;0.1346;0.0027;-0.4079;-0.4543;0.0;21.4;-24.31;7.36;186.08;-67.52;-63.43;0.0;984.28;58.458;31.26146;34.79971;1003.23;NaN;;;44.42258;;0 / 0;81008;2023-03-30 16:32:40:286
6.6323;8.9282;-0.1352;2.4418;9.5011;0.0602;4.1907;-0.5727;-0.1955;-0.8728;-3.6458;0.3001;0.0;25.49;-21.91;-9.81;199.82;-75.58;-88.59;0.0;983.04;53.033;31.26146;34.79971;1003.23;NaN;;;44.42258;;0 / 0;81509;2023-03-30 16:32:40:787
0.1513;9.883;0.7316;1.0197;9.7435;0.51;-0.8682;0.1395;0.2214;-0.3312;0.1379;-0.1245;0.0;20.11;-16.86;-27.27;238.6;-83.05;-82.05;0.0;983.29;57.236;31.26146;34.79971;1003.23;NaN;;;44.42258;;0 / 0;82008;2023-03-30 16:32:41:286
1.4985;9.6287;1.2694;1.3899;9.5926;1.5123;0.1088;0.0363;-0.2431;-0.0947;0.0292;0.0597;0.0;22.16;-15.41;-27.11;273.17;-78.39;-42.53;0.0;984.22;47.865;31.26146;34.79971;1003.23;NaN;;;44.42258;;0 / 0;82509;2023-03-30 16:32:41:787
0.5707;9.615;1.6343;0.7237;9.613;1.8174;-0.3365;-0.087;-0.084;-0.1274;0.051;-0.0753;0.0;23.47;-12.87;-28.32;294.65;-78.5;-21.71;0.0;983.42;39.99;31.26146;34.79971;1003.23;NaN;;;44.42258;;0 / 0;83009;2023-03-30 16:32:42:287
0.8877;9.53;2.2217;0.6913;9.4905;2.385;0.196;0.0061;-0.0636;-0.0573;-0.02;0.1129;0.0;24.23;-12.29;-27.4;300.01;-75.93;-13.49;0.0;983.79;41.121;31.26146;34.79971;1003.23;NaN;;;44.42258;;0 / 0;83509;2023-03-30 16:32:42:787
1.9513;9.3607;2.1625;1.7122;9.3429;2.4524;0.5361;-0.0419;-0.235;0.0098;0.0893;0.2541;0.0;23.16;-13.63;-27.82;287.02;-73.65;-26.71;0.0;984.45;43.254;31.26146;34.79971;1003.23;NaN;;;44.42258;;0 / 0;84008;2023-03-30 16:32:43:286
1.59;9.3577;2.4598;1.6355;9.3152;2.6054;-0.1865;-0.0621;-0.0082;-0.0214;-0.0111;-0.0861;0.0;22.7;-13.36;-28.74;282.34;-71.72;-32.12;0.0;983.99;40.098;31.26146;34.79971;1003.23;NaN;;;44.42258;;0 / 0;84508;2023-03-30 16:32:43:786
1.7133;9.2895;2.5609;1.5665;9.3169;2.6415;0.0799;-0.0267;-0.1143;-0.0017;0.026;0.0173;0.0;22.9;-13.26;-28.63;283.78;-71.76;-30.67;0.0;983.89;49.331;31.26146;34.79971;1003.23;NaN;;;44.42258;;0 / 0;85009;2023-03-30 16:32:44:287
1.3621;9.3057;2.7823;1.3169;9.3146;2.782;-0.0168;0.0061;-0.0245;-0.0315;0.0264;-0.0354;0.0;23.96;-13.25;-28.18;286.34;-71.76;-28.08;0.0;983.65;44.16;31.26146;34.79971;1003.23;NaN;;;44.42258;;0 / 0;85508;2023-03-30 16:32:44:786
1.4393;9.3051;2.7398;1.3535;9.3027;2.8043;0.1045;-0.0358;-0.0498;0.002;-0.0075;8.0E-4;0.0;24.03;-12.66;-27.6;289.74;-71.48;-25.61;0.0;983.94;46.314;31.26146;34.79971;1003.23;NaN;;;44.42258;;0 / 0;86009;2023-03-30 16:32:45:287
1.2712;9.2973;2.6865;1.2803;9.3202;2.7804;0.0;-0.0473;-0.0085;-0.0084;0.0211;0.0038;0.0;23.74;-12.48;-27.61;287.99;-71.82;-24.72;0.0;983.97;44.079;31.26146;34.79971;1003.23;NaN;;;44.42258;;0 / 0;86508;2023-03-30 16:32:45:786
1.3914;9.2776;2.6542;1.4064;9.3144;2.7387;-0.0011;-0.0421;-0.032;0.0049;0.0211;0.0252;0.0;23.17;-13.35;-27.91;286.42;-71.77;-26.88;0.0;984.04;43.961;31.26146;34.79971;1003.23;NaN;;;44.42258;;0 / 2;87009;2023-03-30 16:32:46:287
1.5972;9.2471;2.7272;1.5209;9.2859;2.774;0.0621;-0.0339;-0.0661;-0.0073;-0.0177;0.02;0.0;23.22;-13.57;-29.41;285.37;-71.29;-28.33;0.0;984.16;43.344;31.26146;34.79971;1003.23;NaN;;;44.42258;;0 / 2;87508;2023-03-30 16:32:46:786
1.6642;9.2273;2.7278;1.6938;9.2667;2.7379;-0.0247;-0.0297;-0.006;0.0159;-0.0023;0.0655;0.0;22.58;-13.44;-28.24;282.46;-70.93;-30.51;0.0;984.18;44.282;31.26146;34.79971;1003.23;NaN;;;44.42258;;0 / 2;88009;2023-03-30 16:32:47:287
1.5206;9.2524;2.7027;1.6363;9.2713;2.7571;-0.0341;-0.0098;-0.0259;0.0032;-0.0058;0.0293;0.0;23.53;-13.52;-27.19;279.49;-70.93;-30.76;0.0;984.01;43.337;31.26146;34.79971;1003.23;NaN;;;44.42258;;0 / 2;88508;2023-03-30 16:32:47:786
1.7121;9.2321;2.671;1.752;9.2606;2.7216;-0.0398;-0.0284;-0.0508;0.005;-3.0E-4;-0.0066;0.0;23.73;-13.7;-27.08;277.46;-70.7;-32.74;0.0;984.08;41.078;31.26146;34.79971;1003.23;NaN;;;44.42258;;0 / 1;89008;2023-03-30 16:32:48:286
1.8371;9.2172;2.662;1.7851;9.2573;2.7115;0.0521;-0.04;-0.0497;0.0049;8.0E-4;0.024;0.0;23.25;-13.9;-27.5;277.88;-70.68;-33.36;0.0;984.05;41.985;31.26146;34.79971;1003.23;NaN;;;44.42258;;0 / 1;89509;2023-03-30 16:32:48:787
1.8897;9.2309;2.6195;1.805;9.2641;2.6747;0.0083;-0.0564;-0.0368;0.0073;-0.0011;-0.0023;0.0;23.52;-14.46;-26.97;276.28;-70.8;-34.01;0.0;983.93;42.448;31.26146;34.79971;1003.23;NaN;;;44.42258;;0 / 1;90009;2023-03-30 16:32:49:287
1.7797;9.2267;2.6142;1.8021;9.2723;2.6483;-0.0653;-0.0353;-0.0206;0.0011;0.0015;-6.0E-4;0.0;23.72;-14.74;-26.95;275.61;-70.94;-34.23;0.0;983.85;40.709;31.26146;34.79971;1003.23;NaN;;;44.42258;;0 / 1;90509;2023-03-30 16:32:49:787
1.8568;9.2172;2.5675;1.8337;9.2694;2.6366;0.1143;-0.0623;-0.0502;-3.0E-4;-0.0032;0.0058;0.0;23.83;-13.88;-27.07;275.74;-70.92;-34.63;0.0;983.75;40.823;31.26146;34.79971;1003.23;NaN;;;44.42258;;0 / 0;91008;2023-03-30 16:32:50:286
1.7892;9.2076;2.6477;1.8346;9.2609;2.6658;0.0697;-0.0299;-0.0129;-0.0082;-0.024;-0.0124;0.0;22.95;-14.18;-27.21;276.68;-70.77;-34.65;0.0;984.13;39.547;31.26146;34.79971;1003.23;NaN;;;44.42258;;0 / 0;91509;2023-03-30 16:32:50:787
1.8419;9.2172;2.5908;1.8165;9.2668;2.6575;0.0303;-0.0352;-0.0429;0.0093;0.0189;0.0044;0.0;23.34;-14.18;-27.39;277.0;-70.84;-34.35;0.0;984.02;39.489;31.26146;34.79971;1003.23;NaN;;;44.42258;;0 / 0;92009;2023-03-30 16:32:51:287
1.861;9.2172;2.61;1.8186;9.2716;2.6395;0.0187;-0.0543;-0.0537;0.0021;0.0018;0.0021;0.0;22.78;-14.2;-27.91;278.02;-70.93;-34.52;0.0;983.92;40.025;31.26146;34.79971;1003.23;NaN;;;44.42258;;0 / 0;92510;2023-03-30 16:32:51:788
1.8084;9.2315;2.6004;1.8278;9.2684;2.6442;0.0238;-0.0374;-0.0105;0.0061;-0.0063;-0.0031;0.0;23.06;-14.75;-27.68;277.32;-70.85;-34.67;0.0;984.05;39.603;31.26146;34.79971;1003.23;NaN;;;44.42258;;0 / 0;93009;2023-03-30 16:32:52:287
1.8233;9.2315;2.586;1.8395;9.2649;2.6482;0.0264;-0.0477;-0.0241;-0.0026;-0.0029;0.007;0.0;23.72;-14.07;-26.77;275.55;-70.81;-34.79;0.0;983.9;40.136;31.26146;34.79971;1003.23;NaN;;;44.42258;;0 / 0;93509;2023-03-30 16:32:52:787
1.9334;9.2213;2.5866;1.8427;9.2589;2.6669;-0.3811;-0.1542;0.1074;0.006;0.0125;0.0095;0.0;23.25;-13.62;-27.51;277.89;-70.71;-34.55;0.0;984.03;39.98;31.26146;34.79971;1003.23;NaN;;;44.42258;;0 / 0;94009;2023-03-30 16:32:53:287
2.1972;9.1196;2.394;2.2988;9.2592;2.2843;-0.3616;0.0824;-0.1788;0.12;-0.2561;0.0702;0.0;21.95;-16.07;-26.8;266.61;-70.71;-45.18;0.0;984.42;48.47;31.26146;34.79971;1003.23;NaN;;;44.42258;;0 / 0;94508;2023-03-30 16:32:53:786
-3.9775;13.4848;2.9474;3.8896;9.0014;0.2868;-7.8669;4.4835;2.6603;0.8729;-0.3126;1.0238;0.0;17.39;-22.42;-25.53;242.51;-67.49;-71.4;0.0;984.98;41.368;31.26146;34.79971;1003.23;NaN;;;44.42258;;0 / 0;95009;2023-03-30 16:32:54:287
2.6255;2.7637;-0.143;6.3222;7.5007;-0.0764;-3.3525;-5.4075;0.0529;-1.2246;0.2219;-3.8095;0.0;12.75;-17.24;-15.23;215.21;-49.87;-90.69;0.0;984.1;47.08;31.26146;34.79971;1003.23;NaN;;;44.42258;;0 / 0;95508;2023-03-30 16:32:54:786
3.4582;8.8301;0.4822;3.7204;8.9891;1.2616;-0.2919;0.0212;-0.3005;-0.1011;0.2717;0.1675;0.0;11.22;-11.92;-12.93;236.4;-66.39;-71.27;0.0;984.59;56.613;31.26146;34.79971;1003.23;NaN;;;44.42258;;0 / 1;96009;2023-03-30 16:32:55:287
-1.2634;18.1555;3.1627;6.1433;7.6397;0.3617;-4.062;8.0215;0.8459;0.4543;-0.8755;1.7237;0.0;7.33;-13.87;-13.96;240.13;-61.41;-72.54;0.0;984.38;39.422;31.26146;34.79971;1003.23;NaN;;;44.42258;;0 / 1;96509;2023-03-30 16:32:55:787
10.9693;11.7278;1.3693;-0.561;9.6517;1.6632;12.359;4.7412;-1.5611;-0.0626;1.0324;0.1038;0.0;4.66;-30.28;-11.33;211.16;-61.11;-87.8;0.0;983.08;43.706;31.26146;34.79971;1003.23;NaN;;;44.42258;;0 / 2;97008;2023-03-30 16:32:56:286
1.0977;9.4283;2.3139;0.6491;9.5934;1.9448;0.6414;-0.223;0.0661;-0.0399;-0.0841;0.3558;0.0;12.21;-33.39;-14.53;281.57;-77.94;-18.46;0.0;983.28;53.929;31.26146;34.79971;1003.23;NaN;;;44.42258;;0 / 2;97508;2023-03-30 16:32:56:786
1.4578;10.0229;2.138;1.0444;9.5934;1.7638;1.2271;-0.1285;-0.0514;0.1034;0.0681;-0.1602;0.0;12.76;-33.93;-13.59;265.19;-77.2;-29.67;0.0;983.67;37.328;31.26146;34.79971;1003.23;NaN;;;44.42258;;0 / 2;98008;2023-03-30 16:32:57:286
3.0676;10.6851;-1.5218;-2.4317;9.37;1.5893;13.1464;2.5332;0.9044;0.0677;-1.5256;-0.3761;0.0;20.46;-26.91;-12.02;309.3;-81.54;18.55;0.0;984.33;36.168;31.26146;34.79971;1003.23;NaN;;;44.42258;;0 / 2;98508;2023-03-30 16:32:57:786
-2.5071;7.9783;1.1127;5.0985;8.3421;-0.8071;-0.7248;2.999;1.3969;-0.5721;-0.1723;-1.4238;0.0;-3.25;-17.19;-5.31;217.33;-58.25;-99.0;0.0;984.86;46.044;31.26146;34.79971;1003.23;NaN;;;44.42258;;0 / 2;99008;2023-03-30 16:32:58:286
1.6534;9.396;2.3037;1.7427;9.5433;1.4578;0.3308;-0.76;-0.2432;-0.0533;0.1979;-0.5786;0.0;5.4;-13.41;-9.04;243.32;-70.83;-68.17;0.0;982.83;41.565;31.26146;34.79971;1003.23;NaN;;;44.42258;;0 / 2;99509;2023-03-30 16:32:58:787
2.4873;8.272;-0.5204;3.7848;9.0478;-0.2187;-1.95;-0.4611;0.0044;0.6895;-1.0076;2.3984;0.0;5.89;-17.06;-12.24;264.43;-81.86;-53.73;0.0;983.92;43.621;31.26146;34.79971;1003.23;NaN;;;44.42258;;0 / 2;100009;2023-03-30 16:32:59:287
4.5482;8.802;2.5627;3.5566;9.1134;0.73;0.9917;-0.3113;1.8325;-0.3111;0.1434;-0.3511;0.0;15.54;-13.87;-13.48;222.66;-68.28;-78.4;0.0;985.07;40.528;31.26146;34.79971;1003.23;NaN;;;44.42258;;0 / 2;100509;2023-03-30 16:32:59:787
1.1539;9.5276;2.5944;1.7565;9.4528;1.9484;-0.6024;0.075;0.6458;-0.0318;-0.0125;-0.0933;0.0;19.56;-10.42;-13.4;247.31;-73.48;-52.17;0.0;982.86;46.731;31.26146;34.79971;1003.23;NaN;;;44.42258;;0 / 2;101009;2023-03-30 16:33:00:287
-0.4367;10.7845;0.8381;0.3862;9.7647;0.8584;-0.8227;1.0198;-0.0205;0.1122;-1.1629;-0.4627;0.0;20.9;-8.94;-15.27;264.97;-81.82;-37.76;0.0;983.66;43.996;31.26146;34.79971;1003.23;NaN;;;44.42258;;0 / 2;101509;2023-03-30 16:33:00:787
0.6688;10.3316;2.9683;2.2974;9.5314;-0.3332;-0.0576;1.9668;3.4443;-1.0276;0.3094;-1.4581;0.0;0.98;-13.07;-35.06;255.5;-76.31;-98.25;0.0;982.76;43.947;31.26146;34.79971;1003.23;NaN;;;44.42258;;0 / 2;102009;2023-03-30 16:33:01:287
3.0885;8.4688;0.9284;2.9834;9.2137;1.5629;0.3123;-0.834;-0.0383;-0.2549;0.1216;-0.7188;0.0;-0.24;-8.06;-39.27;278.3;-69.67;-76.31;0.0;984.51;41.665;31.26146;34.79971;1003.23;NaN;;;44.42258;;0 / 2;102509;2023-03-30 16:33:01:787
2.6411;10.0421;2.3689;1.4304;9.4906;2.0296;-0.2176;0.1323;0.5318;6.0E-4;0.3926;-0.1397;0.0;2.2;-6.15;-39.02;311.69;-73.82;-43.9;0.0;983.6;45.085;31.26146;34.79971;1003.23;NaN;;;44.42258;;0 / 2;103009;2023-03-30 16:33:02:287
0.5462;9.6317;1.0062;0.5349;9.643;1.7213;-0.3499;-0.0901;-0.6029;0.0096;5.0E-4;-0.018;0.0;3.76;-7.08;-39.02;335.74;-79.41;-17.26;0.0;983.99;54.56;31.26146;34.79971;1003.23;NaN;;;44.42258;;0 / 2;103508;2023-03-30 16:33:02:786
0.7053;9.591;1.5595;0.6115;9.6396;1.7147;0.1555;0.0194;0.0126;0.0038;0.0325;0.069;0.0;4.45;-6.78;-39.09;335.11;-79.44;-17.87;0.0;984.11;40.034;31.26146;34.79971;1003.23;NaN;;;44.42258;;0 / 1;104008;2023-03-30 16:33:03:286
0.8746;9.4929;1.9842;0.6138;9.6107;1.869;-0.1293;0.0318;0.1056;-0.0272;-0.1413;-0.0127;0.0;3.38;-6.8;-39.25;334.76;-78.71;-19.54;0.0;984.08;39.347;31.26146;34.79971;1003.23;NaN;;;44.42258;;0 / 1;104509;2023-03-30 16:33:03:787
0.1406;9.6215;2.1978;0.5007;9.584;2.0327;0.1769;-0.0564;0.0139;-0.0279;-0.0182;-0.0402;0.0;3.01;-6.25;-39.88;339.59;-77.78;-15.06;0.0;984.13;43.597;31.26146;34.79971;1003.23;NaN;;;44.42258;;0 / 0;105009;2023-03-30 16:33:04:287
0.8554;9.4552;1.9699;0.4191;9.5959;1.9948;0.1082;-0.0445;-0.034;0.0232;-0.0115;-0.0289;0.0;2.82;-5.69;-39.91;342.97;-78.01;-11.86;0.0;983.87;41.153;31.26146;34.79971;1003.23;NaN;;;44.42258;;0 / 0;105508;2023-03-30 16:33:04:786
0.0221;9.609;1.9968;0.2268;9.6154;1.9312;0.2283;-0.0608;0.098;0.0414;-0.0661;-0.0903;0.0;3.67;-5.75;-39.05;346.79;-78.57;-6.7;0.0;983.67;39.776;31.26146;34.79971;1003.23;NaN;;;44.42258;;0 / 0;106009;2023-03-30 16:33:05:287
0.0616;9.5946;1.7551;0.1836;9.6712;1.6339;-0.1133;-0.0703;0.1252;0.1286;-0.0861;0.1489;0.0;3.28;-6.8;-39.25;351.9;-79.82;-3.32;0.0;983.45;40.337;31.26146;34.79971;1003.23;NaN;;;44.42258;;0 / 0;106508;2023-03-30 16:33:05:786
4.9759;10.1157;-0.6365;2.1167;9.5599;0.603;0.9462;0.7712;-1.7901;0.1939;-0.1709;0.431;0.0;-0.56;-10.42;-38.93;312.58;-80.51;-45.41;0.0;984.32;38.32;31.26146;34.79971;1003.23;NaN;;;44.42258;;0 / 0;107009;2023-03-30 16:33:06:287
2.5041;9.0861;0.0658;2.0457;9.5516;-0.9044;0.4586;-0.4654;0.97;-0.1686;-0.8328;-0.1996;0.0;-14.79;-14.55;-35.25;264.24;-76.82;-113.85;0.0;983.46;50.597;31.26146;34.79971;1003.23;NaN;;;44.42258;;0 / 0;107509;2023-03-30 16:33:06:787
0.0508;7.873;-0.1872;0.884;9.7598;-0.448;-0.8301;-0.6602;0.2694;-0.2868;-0.7596;-0.2757;0.0;-20.54;-14.37;-33.0;270.63;-81.66;-115.54;0.0;983.46;44.097;31.26146;34.79971;1003.23;NaN;;;44.42258;;0 / 0;108009;2023-03-30 16:33:07:287
5.0183;11.2846;0.9517;1.7405;9.6095;0.93;1.8806;0.7097;0.6784;-0.4911;-0.639;0.2706;0.0;-21.47;-10.8;-37.36;319.14;-82.86;-69.01;0.0;984.75;47.368;31.26146;34.79971;1003.23;NaN;;;44.42258;;0 / 0;108509;2023-03-30 16:33:07:787
1.7689;9.4092;2.2947;2.0245;9.4026;1.9308;0.8118;-0.2225;-0.4128;-0.1006;-0.0576;0.0907;0.0;-23.51;-4.1;-37.22;345.14;-73.98;-46.91;0.0;984.73;47.407;31.26146;34.79971;1003.23;NaN;;;44.42258;;0 / 0;109009;2023-03-30 16:33:08:287
1.4656;9.4158;2.4927;1.5884;9.4175;2.2414;0.2141;-0.0472;-0.1036;-0.0458;-5.0E-4;-0.0241;0.0;-22.55;-4.09;-36.98;355.56;-74.06;-36.03;0.0;983.74;42.537;31.26146;34.79971;1003.23;NaN;;;44.42258;;0 / 0;109509;2023-03-30 16:33:08:787
1.5081;9.3344;2.4503;1.8676;9.3453;2.3267;-0.2933;-0.0351;0.2699;-0.0078;-0.024;-0.0305;0.0;-23.01;-3.26;-37.72;352.52;-72.39;-38.16;0.0;984.48;42.358;31.26146;34.79971;1003.23;NaN;;;44.42258;;0 / 0;110008;2023-03-30 16:33:09:286
1.6929;9.3625;2.1045;1.7219;9.3785;2.3053;-0.2494;-0.0339;0.1546;0.0096;-0.0128;0.0082;0.0;-22.16;-3.79;-36.87;352.93;-72.78;-37.3;0.0;983.56;41.329;31.26146;34.79971;1003.23;NaN;;;44.42258;;0 / 0;110509;2023-03-30 16:33:09:787
1.7007;9.3188;2.333;1.7375;9.3646;2.3498;0.0069;-0.0379;-0.0209;-0.0235;-0.0047;-0.0185;0.0;-22.83;-3.16;-37.42;354.52;-72.72;-36.99;0.0;983.98;42.784;31.26146;34.79971;1003.23;NaN;;;44.42258;;0 / 0;111009;2023-03-30 16:33:10:287
1.7324;9.2943;2.6423;1.5792;9.3916;2.3538;0.2785;-0.0633;0.2127;0.0214;0.0583;-0.0324;0.0;-22.42;-3.44;-37.7;355.19;-72.5;-35.64;0.0;984.01;41.281;31.26146;34.79971;1003.23;NaN;;;44.42258;;0 / 0;111509;2023-03-30 16:33:10:787
-0.1783;9.4397;1.6068;0.542;9.6353;1.7615;-0.265;-0.0497;-0.2541;0.1061;0.1764;-0.3723;0.0;-22.87;-7.56;-35.9;6.05;-77.38;-26.91;0.0;983.43;40.006;31.26146;34.79971;1003.23;NaN;;;44.42258;;0 / 1;112009;2023-03-30 16:33:11:287
1.8096;9.5767;2.0614;1.5588;9.5206;1.7787;0.0639;-0.0085;0.0486;-0.0467;-0.0498;0.484;0.0;-24.17;-6.34;-35.49;358.34;-77.5;-36.01;0.0;984.05;53.372;31.26146;34.79971;1003.23;NaN;;;44.42258;;0 / 1;112508;2023-03-30 16:33:11:786
3.1268;9.1226;2.5095;2.7618;9.2269;1.8638;-0.7661;0.1822;0.6953;0.2091;-0.3176;0.5525;0.0;-27.71;-1.82;-34.66;341.36;-70.15;-55.99;0.0;985.42;49.48;31.26146;34.79971;1003.23;NaN;;;44.42258;;0 / 0;113008;2023-03-30 16:33:12:286
0.5838;3.8363;0.2291;6.729;6.8534;-1.9971;-5.8291;-3.1887;1.349;1.284;-1.0788;0.5722;0.0;-33.42;-0.22;-27.83;294.53;-44.32;-106.53;0.0;982.41;57.709;31.26146;34.79971;1003.23;NaN;;;44.42258;;0 / 0;113510;2023-03-30 16:33:12:788
13.2036;5.3683;2.1547;1.933;9.4834;1.6014;-15.4774;2.6315;5.261;0.1787;1.0044;3.5187;0.0;-16.23;-9.06;-38.67;329.5;-75.17;-50.36;0.0;983.13;44.907;31.26146;34.79971;1003.23;NaN;;;44.42258;;0 / 0;114009;2023-03-30 16:33:13:287
10.7587;6.9272;-4.5458;8.2322;4.8727;-2.1735;2.5267;2.0546;-2.3725;-1.0427;-1.0116;-0.5861;0.0;-30.72;1.0;-29.15;309.3;-46.97;-89.51;0.0;982.99;55.835;31.26146;34.79971;1003.23;NaN;;;44.42258;;0 / 0;114508;2023-03-30 16:33:13:786
7.0959;4.6181;2.6267;-0.5631;9.451;2.5688;7.6591;-4.8327;0.0578;0.5168;0.1666;2.0293;0.0;-12.15;-15.79;-32.18;38.5;-74.45;12.36;0.0;984.15;53.892;31.26146;34.79971;1003.23;NaN;;;44.42258;;0 / 1;115008;2023-03-30 16:33:14:286
3.7352;10.8144;1.5876;4.3425;8.6737;1.465;-0.2153;1.8028;0.6597;0.5371;-2.1313;1.7336;0.0;-28.54;-7.95;-24.89;332.44;-62.15;-71.36;0.0;985.7;55.83;31.26146;34.79971;1003.23;NaN;;;44.42258;;0 / 1;115509;2023-03-30 16:33:14:787
3.5707;11.8164;5.3396;2.0499;9.3618;-2.0954;1.1148;1.8923;6.5548;1.5317;4.0561;-3.6256;0.0;-5.76;-24.58;-18.5;226.99;-72.61;-135.63;0.0;983.06;49.301;31.26146;34.79971;1003.23;NaN;;;44.42258;;0 / 0;116008;2023-03-30 16:33:15:286
1.8269;9.7322;1.014;1.8547;9.6264;0.359;0.1178;0.1149;0.4609;-0.2106;0.2326;0.0186;0.0;10.38;-25.29;-15.23;225.69;-78.77;-89.92;0.0;984.99;52.317;31.26146;34.79971;1003.23;NaN;;;44.42258;;0 / 0;116509;2023-03-30 16:33:15:787
0.2847;9.9936;0.2518;1.0609;9.7513;0.1494;0.5491;-0.0089;-0.4206;-0.0066;-0.62;-0.4864;0.0;12.69;-23.91;-13.75;234.34;-79.81;-74.59;0.0;984.05;45.522;31.26146;34.79971;1003.23;NaN;;;44.42258;;0 / 0;117009;2023-03-30 16:33:16:287
-0.7962;9.6293;0.2177;-0.542;9.7637;0.7826;0.4561;0.0392;0.3089;-0.1158;0.0864;-0.0733;0.0;13.68;-19.87;-19.54;359.69;-84.43;34.71;0.0;982.82;42.803;31.26146;34.79971;1003.23;NaN;;;44.42258;;0 / 0;117509;2023-03-30 16:33:16:787
-0.2231;9.2154;1.6409;-0.4869;9.6576;1.6519;0.1491;-0.051;0.3614;-0.2248;-0.0267;0.1326;0.0;15.15;-18.92;-20.0;345.14;-80.98;23.93;0.0;983.5;39.939;31.26146;34.79971;1003.23;NaN;;;44.42258;;0 / 0;118008;2023-03-30 16:33:17:286
-0.317;9.4241;2.3192;-0.0595;9.6106;1.9671;0.0548;-0.1672;-0.5448;-0.1;-0.084;0.004;0.0;12.97;-19.18;-21.9;331.3;-78.27;6.57;0.0;983.99;43.211;31.26146;34.79971;1003.23;NaN;;;44.42258;;0 / 0;118509;2023-03-30 16:33:17:787
-0.283;9.5593;1.596;-0.021;9.6407;1.8144;-0.4023;1.0978;-0.0541;0.1043;0.0024;-0.0095;0.0;13.8;-19.8;-20.54;321.31;-78.91;1.04;0.0;985.3;54.826;31.26146;34.79971;1003.23;NaN;;;44.42258;;0 / 0;119008;2023-03-30 16:33:18:286
-0.0508;9.3757;1.8168;-0.045;9.6227;1.9074;-0.1606;0.3268;0.0916;0.0408;0.2182;-0.0133;0.0;14.1;-20.18;-20.92;320.26;-78.65;0.27;0.0;983.89;53.353;31.26146;34.79971;1003.23;NaN;;;44.42258;;0 / 0;119508;2023-03-30 16:33:18:786
-0.1196;9.944;2.0183;0.1562;9.6253;1.888;0.5504;-0.1311;0.1332;0.0151;0.0933;0.0509;0.0;13.51;-19.52;-20.36;313.02;-78.87;-4.73;0.0;984.09;48.16;31.26146;34.79971;1003.23;NaN;;;44.42258;;0 / 1;120008;2023-03-30 16:33:19:286
0.3422;10.1025;1.992;0.3968;9.6243;1.8581;-0.0545;-0.5434;0.4335;3.0E-4;-0.0098;0.0325;0.0;12.37;-19.84;-21.81;312.96;-78.93;-11.39;0.0;984.53;42.558;31.26146;34.79971;1003.23;NaN;;;44.42258;;0 / 1;120508;2023-03-30 16:33:19:786
-0.6108;9.5898;1.9125;0.308;9.6194;1.8997;0.2527;0.2242;0.1376;0.0173;-0.0686;-0.0493;0.0;12.08;-19.93;-21.72;313.41;-78.49;-10.69;0.0;983.75;44.727;31.26146;34.79971;1003.23;NaN;;;44.42258;;0 / 0;121009;2023-03-30 16:33:20:287
0.1023;9.5456;0.5665;-0.0145;9.753;1.0558;0.117;-0.2073;-0.4895;0.4746;0.7879;0.0591;0.0;16.3;-21.19;-16.27;311.31;-83.82;0.79;0.0;983.24;48.617;31.26146;34.79971;1003.23;NaN;;;44.42258;;0 / 0;121508;2023-03-30 16:33:20:786
-2.6022;9.8662;0.1956;-0.9402;9.7536;0.4682;-1.6619;0.1127;-0.2728;0.0397;-0.048;-0.0182;0.0;16.96;-19.65;-15.18;16.94;-84.32;63.98;0.0;984.34;47.739;31.26146;34.79971;1003.23;NaN;;;44.42258;;0 / 0;122009;2023-03-30 16:33:21:287
-0.3081;10.0008;-0.7699;-1.2918;9.7225;0.2;0.9839;0.2784;-0.9701;0.0431;-0.6391;-0.1839;0.0;17.93;-19.92;-15.23;34.57;-83.55;81.47;0.0;985.53;47.878;31.26146;34.79971;1003.23;NaN;;;44.42258;;0 / 0;122509;2023-03-30 16:33:21:787
-1.3322;9.5384;-0.1232;-1.3812;9.7099;-0.2169;-0.3559;0.0751;-0.0148;0.0519;-0.0652;0.0744;0.0;19.29;-19.28;-11.76;44.45;-81.67;96.93;0.0;982.37;69.917;31.26146;34.79971;1003.23;NaN;;;44.42258;;0 / 0;123008;2023-03-30 16:33:22:286
-1.4698;9.6921;-0.1531;-1.2507;9.7265;-0.2605;-0.4582;-0.094;-0.0418;0.0;-0.1449;0.2159;0.0;19.29;-19.46;-11.76;49.08;-82.52;101.77;0.0;982.16;55.766;31.26146;34.79971;1003.23;NaN;;;44.42258;;0 / 0;123509;2023-03-30 16:33:22:787
-1.5278;9.7872;0.0508;-1.2601;9.7276;-0.1504;0.1416;-0.1227;-0.2619;0.0147;0.0845;-0.1335;0.0;18.4;-19.72;-14.41;48.6;-83.5;96.26;0.0;982.84;46.849;31.26146;34.79971;1003.23;NaN;;;44.42258;;0 / 1;124009;2023-03-30 16:33:23:287
0.0628;9.7825;-0.5192;-0.7892;9.775;-0.2485;0.5304;-0.1235;-0.3391;0.0203;-0.183;-0.0096;0.0;16.82;-20.57;-14.05;57.24;-84.58;103.29;0.0;983.02;47.66;31.26146;34.79971;1003.23;NaN;;;44.42258;;0 / 1;124509;2023-03-30 16:33:23:787
-2.0662;9.5198;-0.1041;-1.286;9.7205;-0.3069;0.271;-0.1078;0.1476;0.0272;0.0185;-0.0324;0.0;18.62;-19.47;-12.09;49.5;-82.11;101.86;0.0;982.55;53.396;31.26146;34.79971;1003.23;NaN;;;44.42258;;0 / 0;125008;2023-03-30 16:33:24:286
-1.4064;9.6353;-0.4235;-1.1667;9.7317;-0.4109;0.5693;-0.1196;-0.5877;0.0354;0.053;-0.0719;0.0;19.4;-19.47;-12.15;57.05;-82.76;109.4;0.0;982.73;52.084;31.26146;34.79971;1003.23;NaN;;;44.42258;;0 / 0;125509;2023-03-30 16:33:24:787
-1.3424;9.5593;-0.7268;-0.9556;9.7569;-0.3543;0.6896;-0.0108;0.2088;0.0118;0.2815;0.1222;0.0;17.58;-20.46;-13.52;63.02;-84.04;110.34;0.0;983.02;60.585;31.26146;34.79971;1003.23;NaN;;;44.42258;;0 / 1;126009;2023-03-30 16:33:25:287
-0.67;9.7101;-0.015;-0.7323;9.7826;-0.0262;-0.0368;-0.0904;-0.1798;0.0408;0.0043;-0.0614;0.0;17.19;-20.18;-13.54;41.84;-86.1;89.94;0.0;980.73;63.067;31.26146;34.79971;1003.23;NaN;;;44.42258;;0 / 1;126508;2023-03-30 16:33:25:786
-0.7507;11.1888;-1.3962;-0.9252;9.7652;-0.147;2.8378;1.3017;-0.1852;-0.1119;0.1857;0.7504;0.0;18.47;-19.73;-10.78;45.9;-82.58;99.16;0.0;981.42;40.046;31.26146;34.79971;1003.23;NaN;;;44.42258;;0 / 0;127008;2023-03-30 16:33:26:286
-0.9153;8.6824;-0.335;-0.7546;9.7803;-0.1081;1.6975;-2.0E-4;-1.6514;0.6694;0.0478;-0.0793;5.7763;18.98;-19.74;-11.16;40.97;-85.54;98.15;0.0;979.17;45.977;31.26146;34.79971;1003.23;NaN;;;44.42258;;0 / 0;127509;2023-03-30 16:33:26:787
-2.5382;10.0068;-2.2588;-2.4436;9.4956;-0.3147;0.3572;-0.6821;-1.2366;-0.1709;0.1707;-0.3409;0.6788;23.01;-16.04;-8.36;32.01;-76.91;97.6;0.0;980.98;45.792;31.26146;34.79971;1003.23;NaN;;;44.42258;;0 / 0;128009;2023-03-30 16:33:27:287
-4.9484;4.1228;-2.6949;-1.4812;9.0036;-3.6023;-3.4669;-4.8807;0.9072;3.4803;1.8294;2.2393;19.1575;19.84;-13.93;7.71;62.01;-66.61;157.65;2.0;980.85;58.642;31.26146;34.79971;1003.23;NaN;;;44.42258;;0 / 0;128508;2023-03-30 16:33:27:786
-3.417;1.3783;-9.4929;-3.8097;1.4254;-8.927;1.6144;0.4023;-0.5835;0.8135;0.9113;-1.5806;36.1925;23.86;11.24;11.86;48.46;-14.78;158.1;0.0;982.03;43.793;31.26146;34.79971;1003.23;NaN;;;44.42258;;0 / 0;129008;2023-03-30 16:33:28:286
5.336;-2.0991;-3.1561;6.8492;-1.032;-6.9469;-5.5145;-1.2572;0.0081;3.0533;4.2078;0.5292;36.2;6.89;19.59;22.33;25.72;-0.91;-172.55;0.0;982.9;43.484;31.26146;34.79971;1003.23;NaN;;;44.42258;;0 / 0;129509;2023-03-30 16:33:28:787
1.6146;3.1884;7.2826;2.9538;4.1801;8.3688;0.2521;-0.6751;-2.1573;0.6477;0.9204;-1.0487;205.8812;-32.9;-5.93;-16.81;79.51;-20.09;-23.95;0.0;983.32;42.945;31.26146;34.79971;1003.23;NaN;;;44.42258;;0 / 0;130008;2023-03-30 16:33:29:286
-1.7432;3.661;7.2963;0.7028;3.4477;9.1573;-1.0599;1.2621;-1.111;-0.3421;-0.1126;-0.5877;140.5925;-26.88;-11.93;-22.0;96.33;-20.58;-4.39;0.0;983.35;46.961;31.26146;34.79971;1003.23;NaN;;;44.42258;;0 / 0;130508;2023-03-30 16:33:29:786
0.3996;2.8259;8.6124;1.5197;3.0192;9.2093;-0.7353;-0.6904;0.6259;0.1494;0.2253;-0.582;239.3763;-27.47;-12.69;-21.61;100.65;-17.92;-9.37;0.0;983.46;39.469;31.26146;34.79971;1003.23;NaN;;;44.42258;;0 / 0;131009;2023-03-30 16:33:30:287
-2.0865;0.6861;8.7823;-1.1498;0.5236;9.7283;-0.5377;-0.2762;0.5269;-1.0479;1.9374;-0.0116;239.3763;-22.7;-6.82;-32.1;99.22;-5.82;-0.23;0.0;983.63;39.65;31.26146;34.79971;1003.23;NaN;;;44.42258;;0 / 0;131509;2023-03-30 16:33:30:787
-0.8357;2.3174;9.2728;-0.972;2.3057;9.4855;-0.435;-0.1791;-0.0759;0.6855;-0.4563;-0.1655;366.9738;-22.59;-10.83;-29.77;101.08;-11.93;6.82;0.0;983.66;38.396;31.26146;34.79971;1003.23;NaN;;;44.42258;;0 / 0;132010;2023-03-30 16:33:31:288
-1.4345;4.1282;9.8501;-0.4139;2.0331;9.5881;-0.6873;1.5185;-0.236;-0.2159;0.8775;-0.0046;366.9738;-24.92;-10.81;-27.67;100.41;-12.71;2.3;0.0;983.74;37.749;31.26146;34.79971;1003.23;NaN;;;44.42258;;0 / 0;132508;2023-03-30 16:33:31:786
-1.2455;2.2361;10.3358;-0.8049;2.7908;9.3702;-0.4389;-0.2439;0.681;-0.2037;-0.2057;0.0837;332.8163;-24.84;-9.25;-30.01;91.53;-16.53;4.91;0.0;983.73;44.671;31.26146;34.79971;1003.23;NaN;;;44.42258;;0 / 1;133010;2023-03-30 16:33:32:288
-0.0634;3.0275;9.2889;0.1891;3.0307;9.3282;-0.3165;-0.0558;-0.2468;-0.0974;0.062;-0.0431;332.8163;-26.22;-11.75;-26.8;96.19;-18.39;-0.57;0.0;983.84;40.411;31.26146;34.79971;1003.23;NaN;;;44.42258;;0 / 1;133509;2023-03-30 16:33:32:787
0.7687;3.2698;9.2213;1.0337;3.3191;9.1734;-0.3497;-0.1079;0.2076;0.0197;-9.0E-4;0.013;269.3237;-27.73;-12.05;-22.74;95.65;-19.78;-6.43;2.0;983.79;42.104;31.26146;34.79971;1003.23;NaN;;;44.42258;;0 / 2;134008;2023-03-30 16:33:33:286
-0.2835;3.0036;9.9673;-0.0699;3.2992;9.2383;-0.2079;-0.3063;0.7418;-0.1608;0.537;-0.0875;269.3237;-25.97;-12.19;-25.47;95.27;-20.08;-2.62;2.0;983.81;38.367;31.26146;34.79971;1003.23;NaN;;;44.42258;;0 / 2;134508;2023-03-30 16:33:33:786
-0.8752;3.1131;9.6586;-0.7565;3.382;9.1775;0.0472;-0.1883;0.4107;0.1341;-0.0418;0.007;269.3237;-23.38;-12.26;-30.17;96.86;-18.1;8.76;2.0;983.83;38.588;31.26146;34.79971;1003.23;NaN;;;44.42258;;0 / 0;135008;2023-03-30 16:33:34:286
0.7783;4.1348;8.7326;0.7665;4.0713;8.8923;-0.2791;-0.1025;-0.1396;0.1037;-0.2784;0.0826;269.3237;-27.24;-13.37;-22.89;93.11;-24.52;-4.93;2.0;983.85;43.762;31.26146;34.79971;1003.23;NaN;;;44.42258;;0 / 0;135508;2023-03-30 16:33:34:786
-0.9302;3.7567;8.4377;-0.8256;3.7985;9.007;0.0936;0.0339;-0.3578;-0.2251;0.1558;-0.0767;269.3237;-24.55;-14.48;-27.16;97.04;-22.78;5.24;2.0;983.82;44.685;31.26146;34.79971;1003.23;NaN;;;44.42258;;0 / 0;136010;2023-03-30 16:33:35:288
-1.0816;3.3787;9.1992;-0.9618;3.3478;9.1708;0.022;-0.0715;0.5049;-0.0034;0.0012;0.0218;269.3237;-22.69;-13.9;-27.28;100.35;-20.3;6.55;2.0;983.87;45.277;31.26146;34.79971;1003.23;NaN;;;44.42258;;0 / 0;136509;2023-03-30 16:33:35:787