sep=;
ACCELEROMETER X (m/s²);ACCELEROMETER Y (m/s²);ACCELEROMETER Z (m/s²);GRAVITY X (m/s²);GRAVITY Y (m/s²);GRAVITY Z (m/s²);LINEAR ACCELERATION X (m/s²);LINEAR ACCELERATION Y (m/s²);LINEAR ACCELERATION Z (m/s²);GYROSCOPE X (rad/s);GYROSCOPE Y (rad/s);GYROSCOPE Z (rad/s);LIGHT (lux);MAGNETIC FIELD X (μT);MAGNETIC FIELD Y (μT);MAGNETIC FIELD Z (μT);ORIENTATION Z (azimuth °);ORIENTATION X (pitch °);ORIENTATION Y (roll °);PROXIMITY (i);ATMOSPHERIC PRESSURE (hPa);SOUND LEVEL (dB);LOCATION Latitude : ;LOCATION Longitude : ;LOCATION Altitude ( m);LOCATION Altitude-google ( m);LOCATION Altitude-atmospheric pressure ( m);LOCATION Speed ( Kmh);LOCATION Accuracy ( m);LOCATION ORIENTATION (°);Satellites in range;Time since start in ms ;YYYY-MO-DD HH-MI-SS_SSS
-0.0407;3.6706;9.4851;-0.1917;3.4369;9.1863;-0.3757;0.0653;0.2695;0.1851;-0.2318;0.1235;297.58;-25.49;-2.6;-27.8;75.08;-20.51;1.2;2.0;983.87;44.571;31.26146;34.79971;1003.23;NaN;;;44.42258;;0 / 0;4;2023-03-30 16:33:57:274
-0.9344;1.5015;11.0824;0.1761;2.6216;9.4516;0.5503;0.2519;1.4874;-0.4348;-0.2395;-0.6735;297.58;-22.68;-10.89;-24.14;98.4;-18.38;6.87;2.0;983.92;53.722;31.26146;34.79971;1003.23;NaN;;;44.42258;;0 / 0;503;2023-03-30 16:33:57:773
4.608;6.2949;3.0305;7.4194;5.4384;3.4078;0.8534;0.1362;-1.4467;-0.4552;-1.0079;-0.5611;297.58;-21.17;-18.37;9.77;110.61;-33.67;-65.33;2.0;983.5;41.679;31.26146;34.79971;1003.23;NaN;;;44.42258;;0 / 0;1003;2023-03-30 16:33:58:273
-2.7852;9.5456;-2.4778;1.2731;9.72;0.3704;1.7084;-1.2286;1.5111;0.9827;-2.8398;-6.5279;297.58;0.83;-24.28;10.24;156.16;-44.54;-68.87;2.0;983.79;39.638;31.26146;34.79971;1003.23;NaN;;;44.42258;;0 / 0;1503;2023-03-30 16:33:58:773
-1.6648;10.255;0.2183;-0.8936;9.7691;0.0441;-0.2788;0.9825;0.1339;0.0632;-0.2017;0.1092;34.2162;21.08;-18.92;-0.54;359.89;-84.77;87.18;2.0;983.84;48.884;31.26146;34.79971;1003.23;NaN;;;44.42258;;0 / 0;2003;2023-03-30 16:33:59:273
-0.9523;9.7119;-0.0885;-0.6494;9.7854;-0.2443;0.2934;0.4637;0.0379;0.0286;0.9865;-0.1567;37.5675;19.9;-19.74;-3.28;31.3;-85.94;110.62;0.0;983.97;49.4;31.26146;34.79971;1003.23;NaN;;;44.42258;;0 / 0;2503;2023-03-30 16:33:59:773
-0.6939;10.1827;-0.2506;-0.5153;9.7788;-0.5877;-0.1878;0.1258;-0.0655;0.2188;0.2268;-0.3305;37.5675;19.58;-20.2;-2.59;61.34;-85.43;138.76;0.0;984.24;46.191;31.26146;34.79971;1003.23;NaN;;;44.42258;;0 / 0;3003;2023-03-30 16:34:00:273
0.1561;9.728;-0.2668;-0.1402;9.8034;-0.3305;0.2375;-0.1724;0.1061;-0.0368;0.1594;0.1579;37.5675;18.73;-21.28;-3.7;72.71;-87.64;148.36;0.0;986.98;40.345;31.26146;34.79971;1003.23;NaN;;;44.42258;;0 / 0;3503;2023-03-30 16:34:00:773
0.341;9.3266;-0.3876;0.2458;9.7939;-0.5054;-0.002;0.0043;0.1101;0.0661;0.3703;0.1762;37.5675;17.51;-22.64;-5.22;134.3;-86.72;-154.07;0.0;985.35;42.31;31.26146;34.79971;1003.23;NaN;;;44.42258;;0 / 0;4004;2023-03-30 16:34:01:274
0.9876;9.8279;-0.3906;0.8808;9.7581;-0.4901;0.1182;-0.0186;0.0408;-0.0211;-0.3187;0.1066;37.5675;16.51;-24.25;-4.93;166.41;-84.37;-121.71;0.0;986.1;41.674;31.26146;34.79971;1003.23;NaN;;;44.42258;;0 / 0;4504;2023-03-30 16:34:01:774
1.0164;9.5611;-0.7172;0.9165;9.7642;-0.2383;0.051;-0.2668;-0.463;-0.0125;0.1797;0.1503;37.5675;15.57;-24.38;-5.87;183.13;-85.29;-110.16;0.0;985.84;50.172;31.26146;34.79971;1003.23;NaN;;;44.42258;;0 / 0;5003;2023-03-30 16:34:02:273
2.077;9.9278;0.3775;1.0436;9.7539;0.0934;-0.0135;0.2242;0.6156;-0.0174;0.5738;-0.1145;37.5675;14.86;-24.81;-8.31;208.96;-83.87;-84.88;0.0;986.44;59.769;31.26146;34.79971;1003.23;NaN;;;44.42258;;0 / 0;5503;2023-03-30 16:34:02:773
0.4708;10.2742;-0.0532;0.808;9.7734;-0.2525;0.822;0.4674;0.5638;0.1013;0.7361;-0.2329;37.5675;16.03;-23.89;-5.16;186.39;-85.05;-100.21;0.0;984.91;50.631;31.26146;34.79971;1003.23;NaN;;;44.42258;;0 / 1;6004;2023-03-30 16:34:03:274
-0.2489;9.8913;-1.2311;-0.1498;9.7776;-0.7827;-0.302;-0.0934;-0.6668;0.0128;-0.0567;-0.031;37.5675;17.75;-21.69;-0.62;107.2;-85.67;-170.99;0.0;988.67;56.236;31.26146;34.79971;1003.23;NaN;;;44.42258;;0 / 1;6504;2023-03-30 16:34:03:774
-2.3827;8.6955;-6.5713;-3.7907;9.0306;-0.5616;-1.2457;0.1028;0.6092;0.1724;-0.0672;0.3118;37.5675;26.91;-11.61;-1.77;16.82;-67.01;98.43;0.0;985.98;53.054;31.26146;34.79971;1003.23;NaN;;;44.42258;;0 / 1;7003;2023-03-30 16:34:04:273
1.142;9.67;-0.7741;-0.9135;9.7494;-0.5915;-0.2171;0.0679;-0.3959;-0.1359;0.3138;0.9317;37.5675;19.7;-19.52;2.73;27.44;-83.63;122.92;0.0;982.76;55.938;31.26146;34.79971;1003.23;NaN;;;44.42258;;0 / 1;7504;2023-03-30 16:34:04:774
-1.9172;9.4068;-1.1019;-0.4738;9.7599;-0.8693;0.3407;0.2071;0.0583;0.0307;-0.1121;5.0E-4;1.4988;18.71;-19.95;5.61;48.38;-84.62;152.44;0.0;984.49;57.161;31.26146;34.79971;1003.23;NaN;;;44.42258;;0 / 0;8003;2023-03-30 16:34:05:273
-0.1561;9.6897;-0.987;-0.6187;9.7335;-1.0547;0.1251;-0.2838;-0.2641;0.0817;-0.4644;0.3312;1.4988;20.78;-19.68;-0.43;58.72;-82.36;142.25;0.0;987.04;57.08;31.26146;34.79971;1003.23;NaN;;;44.42258;;0 / 0;8504;2023-03-30 16:34:05:774
0.1143;9.5725;-0.6658;-0.5846;9.7709;-0.6516;-0.3429;-0.2799;-0.0954;-0.0443;0.2746;-0.0675;1.4988;19.84;-21.0;-4.47;64.62;-84.6;138.17;0.0;985.37;54.877;31.26146;34.79971;1003.23;NaN;;;44.42258;;0 / 1;9004;2023-03-30 16:34:06:274
-0.3416;9.6562;-0.5127;-0.593;9.7634;-0.7482;-0.4173;-0.4734;0.0656;0.0142;0.0208;0.0173;1.4988;19.73;-20.52;-4.38;68.37;-84.42;141.6;0.0;986.83;52.558;31.26146;34.79971;1003.23;NaN;;;44.42258;;0 / 1;9504;2023-03-30 16:34:06:774
-0.4014;9.7286;-0.7507;-0.4449;9.7701;-0.7637;0.014;0.1055;-0.0297;-0.0035;-0.0623;0.0133;1.4988;20.35;-20.65;-2.13;70.67;-84.83;149.78;0.0;985.74;49.316;31.26146;34.79971;1003.23;NaN;;;44.42258;;0 / 0;10004;2023-03-30 16:34:07:274
-0.4678;9.5898;-0.3272;-0.5069;9.7663;-0.7736;-0.1106;-0.2818;0.2627;0.0396;-0.1556;-0.0168;1.4988;19.85;-21.01;-4.86;78.92;-84.8;149.62;0.0;985.67;67.497;31.26146;34.79971;1003.23;NaN;;;44.42258;;0 / 0;10504;2023-03-30 16:34:07:774
-0.414;10.1103;-0.6197;-0.5377;9.7519;-0.9205;0.151;0.2412;-0.0504;0.1205;-0.0359;0.0742;1.4988;20.11;-20.63;-0.84;66.77;-84.07;148.05;0.0;980.77;63.743;31.26146;34.79971;1003.23;NaN;;;44.42258;;0 / 1;11003;2023-03-30 16:34:08:273
0.5838;9.6562;-1.215;0.1068;9.7405;-1.1609;0.5754;-0.1045;-0.0736;0.036;0.2514;0.2082;1.4988;17.78;-20.98;1.48;86.7;-83.45;172.18;0.0;982.27;49.377;31.26146;34.79971;1003.23;NaN;;;44.42258;;0 / 1;11503;2023-03-30 16:34:08:773
0.1723;9.7173;-1.3322;0.1041;9.7472;-1.1032;0.1147;-0.0061;-0.0514;-0.004;-0.1535;-0.0782;1.4988;18.47;-21.36;1.01;99.65;-83.51;-174.61;0.0;985.06;43.294;31.26146;34.79971;1003.23;NaN;;;44.42258;;0 / 1;12004;2023-03-30 16:34:09:274
-0.0873;9.6515;-1.2144;-0.2666;9.7501;-1.0495;0.1876;-0.0751;-0.1177;-0.017;0.0199;-0.0163;1.4988;18.79;-20.9;0.51;81.47;-83.8;167.62;0.0;986.11;46.495;31.26146;34.79971;1003.23;NaN;;;44.42258;;0 / 1;12503;2023-03-30 16:34:09:773
-1.2574;9.7029;-1.194;-0.4693;9.7334;-1.13;-0.6598;0.0843;0.2194;0.0684;0.1823;0.1671;1.4988;19.23;-20.92;-0.87;78.36;-82.84;157.45;0.0;982.11;61.531;31.26146;34.79971;1003.23;NaN;;;44.42258;;0 / 1;13003;2023-03-30 16:34:10:273
-0.6221;8.9599;-1.6857;-0.4896;9.7231;-1.2074;1.0969;-0.0944;-0.2881;-0.0139;0.1054;0.0605;1.4988;19.04;-20.19;-1.4;74.25;-82.22;153.16;0.0;981.38;64.115;31.26146;34.79971;1003.23;NaN;;;44.42258;;0 / 1;13505;2023-03-30 16:34:10:775
0.3811;9.6239;-1.0828;0.1103;9.7548;-1.0336;0.1773;-0.0186;0.0292;0.0307;-0.0197;-0.0542;1.4988;18.34;-22.07;-0.88;106.35;-83.92;-173.91;0.0;983.09;54.262;31.26146;34.79971;1003.23;NaN;;;44.42258;;0 / 0;14003;2023-03-30 16:34:11:273
-2.2582;11.6387;0.1986;-0.4024;9.7599;-0.9049;0.627;0.1904;-0.1188;-0.0186;-0.3506;-0.0276;1.4988;19.59;-21.29;-0.34;75.14;-84.17;159.12;0.0;986.11;46.779;31.26146;34.79971;1003.23;NaN;;;44.42258;;0 / 0;14503;2023-03-30 16:34:11:773
-1.4387;9.6736;-0.5575;-0.4958;9.7626;-0.8263;0.2648;-0.0346;-0.106;0.1029;-0.5764;0.1408;1.4988;19.39;-20.9;0.24;64.8;-84.36;149.04;0.0;987.98;63.544;31.26146;34.79971;1003.23;NaN;;;44.42258;;0 / 0;15003;2023-03-30 16:34:12:273
-0.9362;9.6036;-0.5444;-0.2072;9.7701;-0.8592;0.0341;-0.3682;-0.0802;-0.0417;0.2334;-0.0933;0.6075;19.12;-21.12;-0.67;85.18;-84.83;166.44;0.0;983.79;48.965;31.26146;34.79971;1003.23;NaN;;;44.42258;;0 / 0;15503;2023-03-30 16:34:12:773
-0.4702;9.9404;-1.0756;-0.207;9.7762;-0.7865;0.0041;-0.0113;0.0407;-0.0163;-0.1239;0.0435;0.6075;19.46;-21.17;0.85;77.42;-85.24;165.25;0.0;983.68;43.904;31.26146;34.79971;1003.23;NaN;;;44.42258;;0 / 0;16003;2023-03-30 16:34:13:273
-0.1908;9.6323;-0.7872;-0.2782;9.7849;-0.6439;0.4332;0.0962;0.2662;-0.0134;0.091;0.0348;0.6075;19.73;-20.94;-1.24;73.82;-85.79;156.67;0.0;984.82;41.493;31.26146;34.79971;1003.23;NaN;;;44.42258;;0 / 0;16503;2023-03-30 16:34:13:773
-0.4397;9.9003;-0.5569;-0.1055;9.7942;-0.5467;0.1485;-0.0661;-0.1461;0.004;0.0732;0.0191;0.6075;18.58;-21.44;-2.1;88.67;-86.75;169.08;0.0;982.21;47.901;31.26146;34.79971;1003.23;NaN;;;44.42258;;0 / 0;17004;2023-03-30 16:34:14:274
0.2345;9.7525;-0.4995;0.025;9.7946;-0.5497;0.1348;0.0141;0.0725;-0.0124;0.1339;-0.0037;0.6075;18.75;-21.98;-1.27;99.28;-86.78;-177.39;0.0;982.45;54.166;31.26146;34.79971;1003.23;NaN;;;44.42258;;0 / 0;17504;2023-03-30 16:34:14:774
0.0634;9.8447;-0.5868;-0.2422;9.7928;-0.5285;0.1057;-0.0601;-0.1267;0.006;-0.0959;-0.0148;0.6075;19.22;-20.89;-3.49;80.56;-86.7;158.01;0.0;984.81;59.599;31.26146;34.79971;1003.23;NaN;;;44.42258;;0 / 1;18003;2023-03-30 16:34:15:273
-1.0546;9.6048;-0.7358;-0.1569;9.7845;-0.6891;0.1715;-0.011;-0.1003;0.0706;0.0893;-0.1167;0.6075;19.84;-21.79;-1.62;87.42;-85.87;167.17;0.0;984.49;45.81;31.26146;34.79971;1003.23;NaN;;;44.42258;;0 / 1;18503;2023-03-30 16:34:15:773
0.5151;9.7226;-0.8399;0.068;9.7702;-0.8805;0.4493;-0.0143;0.1637;0.0516;0.0069;-0.0173;0.6075;18.42;-22.53;-0.37;95.82;-84.91;179.34;0.0;984.02;41.741;31.26146;34.79971;1003.23;NaN;;;44.42258;;0 / 0;19004;2023-03-30 16:34:16:274
0.2979;9.5856;-0.8501;0.1088;9.7617;-0.9662;0.097;-0.0826;0.1224;-0.0356;0.0015;0.0185;0.6075;18.63;-21.78;-0.57;103.37;-84.21;-176.12;0.0;984.07;47.27;31.26146;34.79971;1003.23;NaN;;;44.42258;;0 / 0;19504;2023-03-30 16:34:16:774
-0.1256;9.8901;-0.9733;0.2829;9.7647;-0.8982;0.6197;-0.0568;-0.0564;0.0011;0.1011;-0.0055;0.6075;17.24;-22.25;0.07;112.77;-84.6;-163.61;0.0;983.95;40.965;31.26146;34.79971;1003.23;NaN;;;44.42258;;0 / 2;20004;2023-03-30 16:34:17:274
0.0024;9.6694;-0.9715;0.1503;9.7526;-1.0486;-0.141;-0.1633;-0.1407;0.0223;0.0266;-0.0464;0.6075;18.48;-21.84;0.83;102.34;-83.8;-171.84;0.0;983.33;46.837;31.26146;34.79971;1003.23;NaN;;;44.42258;;0 / 2;20503;2023-03-30 16:34:17:773
0.2189;9.7352;-1.075;0.0637;9.7675;-0.9102;-0.5268;0.0917;-0.1715;-0.0322;-0.0032;-0.0151;0.6075;18.1;-21.95;0.51;98.84;-84.53;-174.56;0.0;983.69;47.515;31.26146;34.79971;1003.23;NaN;;;44.42258;;0 / 1;21003;2023-03-30 16:34:18:273
0.2943;9.6957;-0.8746;0.1859;9.7669;-0.8992;0.1557;0.2239;0.1941;0.0185;0.0929;0.0374;0.6075;18.29;-22.03;0.62;104.8;-84.63;-168.32;0.0;983.53;40.772;31.26146;34.79971;1003.23;NaN;;;44.42258;;0 / 1;21504;2023-03-30 16:34:18:774
-0.125;9.3434;-1.7605;0.1724;9.7567;-1.0063;0.1718;0.9667;0.0797;0.044;0.1242;-0.0195;0.6075;17.78;-22.22;1.51;100.82;-83.73;-170.31;0.0;983.22;41.907;31.26146;34.79971;1003.23;NaN;;;44.42258;;0 / 1;22004;2023-03-30 16:34:19:274
0.3918;9.7813;-1.06;0.1548;9.7623;-0.9538;0.3669;0.0195;-0.1142;-0.017;-0.0047;0.0328;0.6075;18.47;-21.94;1.02;102.22;-84.18;-171.52;0.0;985.4;48.83;31.26146;34.79971;1003.23;NaN;;;44.42258;;0 / 1;22504;2023-03-30 16:34:19:774
0.53;9.4522;-1.3286;0.0867;9.7644;-0.9403;-0.3306;0.2898;0.3674;0.0348;0.1145;0.0791;0.6075;17.91;-21.39;0.49;99.73;-84.36;-176.75;0.0;985.29;44.735;31.26146;34.79971;1003.23;NaN;;;44.42258;;0 / 0;23004;2023-03-30 16:34:20:274
0.6694;9.0921;-1.0355;0.4488;9.7532;-0.9542;0.2983;-0.0539;-0.0105;-0.0316;0.0974;0.0759;0.6075;17.65;-22.77;2.22;115.81;-83.83;-154.81;0.0;983.6;51.582;31.26146;34.79971;1003.23;NaN;;;44.42258;;0 / 0;23503;2023-03-30 16:34:20:773
0.4193;9.7998;-0.798;0.597;9.7477;-0.9284;-0.1688;-0.0872;0.028;0.0148;-0.0899;-0.0246;0.6075;16.57;-22.86;2.57;119.32;-83.59;-148.02;0.0;984.74;48.989;31.26146;34.79971;1003.23;NaN;;;44.42258;;0 / 0;24003;2023-03-30 16:34:21:273
-0.6802;9.8734;-0.4726;0.2827;9.7628;-0.9183;0.0679;0.3006;0.0839;-0.016;-0.4276;-0.2199;0.6075;18.39;-22.61;0.84;110.59;-84.38;-162.89;0.0;984.22;48.581;31.26146;34.79971;1003.23;NaN;;;44.42258;;0 / 0;24503;2023-03-30 16:34:21:773
-0.0162;9.789;-0.9577;0.5485;9.7429;-1.0056;-0.0337;0.0303;-0.0674;-0.0533;0.0527;0.0179;0.6075;16.41;-22.8;1.35;117.44;-83.8;-156.78;0.0;987.21;49.716;31.26146;34.79971;1003.23;NaN;;;44.42258;;0 / 0;25003;2023-03-30 16:34:22:273
0.9165;9.6927;-1.4219;0.4056;9.7118;-1.3237;0.3038;-0.052;0.2451;0.1097;-0.0037;-0.137;0.6075;17.76;-22.3;1.71;109.87;-81.89;-162.97;0.0;984.72;45.864;31.26146;34.79971;1003.23;NaN;;;44.42258;;0 / 0;25504;2023-03-30 16:34:22:774
-0.0897;9.6054;-1.7234;0.0744;9.6711;-1.6431;-0.2491;-0.0507;-0.117;0.0493;-0.0095;-0.079;0.6075;17.85;-21.73;2.1;99.4;-80.56;-175.62;0.0;984.51;45.238;31.26146;34.79971;1003.23;NaN;;;44.42258;;0 / 0;26003;2023-03-30 16:34:23:273
-0.6018;9.4505;-1.3119;0.0418;9.6789;-1.5979;-0.6888;-0.149;0.2194;-0.0032;0.0399;0.0672;0.6075;18.19;-21.41;3.61;89.81;-80.62;-178.5;0.0;984.56;42.792;31.26146;34.79971;1003.23;NaN;;;44.42258;;0 / 0;26503;2023-03-30 16:34:23:773
0.3679;9.6867;-1.1498;0.0271;9.6922;-1.5156;0.2119;0.0664;0.3163;-0.0441;-0.0412;0.0464;0.6075;18.18;-21.18;1.29;98.13;-81.11;-178.98;0.0;984.58;45.98;31.26146;34.79971;1003.23;NaN;;;44.42258;;0 / 0;27003;2023-03-30 16:34:24:273
-0.5892;9.6897;-1.5081;-0.2755;9.6706;-1.6248;0.1282;0.0028;0.0073;-0.0057;0.0771;0.0289;0.6075;19.24;-20.3;1.83;84.67;-80.33;170.38;0.0;983.69;45.726;31.26146;34.79971;1003.23;NaN;;;44.42258;;0 / 0;27503;2023-03-30 16:34:24:773
-0.5384;9.1938;-1.7719;-0.2816;9.6645;-1.6598;0.0967;0.1779;0.0742;-0.0226;-0.0742;0.0082;0.6075;18.93;-20.58;1.92;85.38;-80.01;170.19;0.0;982.38;44.049;31.26146;34.79971;1003.23;NaN;;;44.42258;;0 / 2;28003;2023-03-30 16:34:25:273
-0.4648;9.6503;-1.4309;-0.0993;9.702;-1.4486;0.1153;-0.0736;0.0316;-0.0452;-0.0867;0.0533;0.6075;18.76;-21.36;1.23;92.54;-81.49;176.08;0.0;984.79;46.537;31.26146;34.79971;1003.23;NaN;;;44.42258;;0 / 2;28503;2023-03-30 16:34:25:773
-0.3039;9.5725;-1.2491;-0.0938;9.7204;-1.3196;0.3245;-0.0531;0.1244;0.0425;0.1048;-0.0512;0.6075;19.46;-21.73;1.07;91.51;-82.2;175.42;0.0;984.03;45.814;31.26146;34.79971;1003.23;NaN;;;44.42258;;0 / 2;29004;2023-03-30 16:34:26:274
-0.868;9.6628;-1.4381;-0.2271;9.713;-1.357;0.0814;-0.0786;-0.051;0.0096;0.018;-0.0469;0.6075;18.76;-21.17;1.43;86.5;-81.94;170.5;0.0;983.55;49.344;31.26146;34.79971;1003.23;NaN;;;44.42258;;0 / 2;29504;2023-03-30 16:34:26:774
-0.7035;9.7358;-0.7669;-0.3035;9.7444;-1.0916;-0.3169;-0.0377;0.2486;-0.168;0.7039;0.0333;0.6075;19.14;-20.78;1.73;74.25;-82.28;161.88;0.0;984.46;47.854;31.26146;34.79971;1003.23;NaN;;;44.42258;;0 / 1;30003;2023-03-30 16:34:27:273
-0.9296;9.1854;-1.2843;-0.2639;9.7553;-0.9999;-1.0415;-0.0783;0.0124;0.0224;-0.1072;-6.0E-4;0.6075;19.45;-20.51;1.23;78.85;-83.95;165.21;0.0;984.15;52.345;31.26146;34.79971;1003.23;NaN;;;44.42258;;0 / 1;30503;2023-03-30 16:34:27:773
-1.0343;9.615;-0.9494;-0.4073;9.748;-1.0235;-0.0105;-0.0832;-0.0264;-0.0064;0.0145;-0.0183;0.6075;19.51;-20.83;-0.66;81.53;-83.63;161.97;0.0;984.24;52.575;31.26146;34.79971;1003.23;NaN;;;44.42258;;0 / 0;31003;2023-03-30 16:34:28:273
-0.7651;9.737;-0.8674;-0.4943;9.7547;-0.9153;-0.1364;-0.083;0.0163;-0.0409;0.0828;-0.0113;0.6075;19.74;-21.03;-1.65;74.03;-83.68;151.85;0.0;983.87;44.523;31.26146;34.79971;1003.23;NaN;;;44.42258;;0 / 0;31503;2023-03-30 16:34:28:773
-1.2317;9.2758;-0.4546;-0.3052;9.7767;-0.7482;0.2699;-0.02;0.2651;-0.0037;-0.1469;-0.0183;0.6075;19.32;-20.74;-0.77;75.94;-85.27;157.81;0.0;983.81;47.529;31.26146;34.79971;1003.23;NaN;;;44.42258;;0 / 0;32003;2023-03-30 16:34:29:273
-0.1998;9.7424;-0.8016;-0.3618;9.7728;-0.7737;0.1185;-0.0187;-0.0045;-0.0011;-0.0096;0.0195;0.6075;19.53;-21.41;-1.24;72.89;-85.01;154.94;0.0;983.98;55.288;31.26146;34.79971;1003.23;NaN;;;44.42258;;0 / 0;32504;2023-03-30 16:34:29:774
-0.4558;9.5862;-0.6646;-0.3592;9.7798;-0.6804;0.4161;0.0334;-0.2833;-0.0145;0.0586;-0.0053;0.6075;19.63;-21.12;-1.35;72.14;-85.06;151.44;0.0;983.91;52.6;31.26146;34.79971;1003.23;NaN;;;44.42258;;0 / 1;33005;2023-03-30 16:34:30:275
-0.7149;9.7543;-0.4295;-0.3926;9.7769;-0.7029;0.1797;-0.1082;-0.1051;0.0125;-0.0473;-0.0524;0.6075;19.34;-21.87;-1.24;69.35;-85.44;151.32;0.0;984.01;50.927;31.26146;34.79971;1003.23;NaN;;;44.42258;;0 / 1;33504;2023-03-30 16:34:30:774
0.1244;9.9266;-0.9954;-0.7075;9.7405;-0.9261;0.3807;-0.0361;0.0238;0.013;-0.036;-0.1984;0.6075;20.4;-20.53;-0.83;66.39;-83.79;147.41;0.0;984.02;55.635;31.26146;34.79971;1003.23;NaN;;;44.42258;;0 / 0;34003;2023-03-30 16:34:31:273
-2.7141;9.5785;-0.6987;-1.5738;9.6551;-0.7335;0.0692;0.1181;0.4196;-0.0238;0.4849;-0.0417;0.6075;21.42;-18.03;0.96;26.52;-79.81;114.99;0.0;983.95;55.804;31.26146;34.79971;1003.23;NaN;;;44.42258;;0 / 0;34503;2023-03-30 16:34:31:773
-1.3747;9.539;-0.2189;-1.4276;9.699;-0.3577;0.7939;0.0421;0.0578;-0.1162;-0.641;-0.1709;0.6075;21.47;-18.19;2.27;10.01;-81.37;104.07;0.0;984.83;55.317;31.26146;34.79971;1003.23;NaN;;;44.42258;;0 / 1;35003;2023-03-30 16:34:32:273
-1.0002;9.7765;0.7669;-1.4579;9.6773;0.6791;0.2215;0.0102;0.0165;-0.1675;0.082;0.1959;0.6075;21.61;-18.74;-1.52;336.74;-80.56;65.02;0.0;984.14;44.493;31.26146;34.79971;1003.23;NaN;;;44.42258;;0 / 1;35503;2023-03-30 16:34:32:773
-1.1288;9.7711;1.3418;-0.9254;9.6925;1.1982;-0.1027;-0.1223;0.0165;-0.0121;-0.21;0.037;0.6075;19.45;-20.95;-1.77;305.34;-81.12;37.68;0.0;983.97;45.263;31.26146;34.79971;1003.23;NaN;;;44.42258;;0 / 0;36003;2023-03-30 16:34:33:273
-0.9906;9.5695;1.2909;-0.8002;9.6924;1.2861;-0.1173;-0.0223;-0.0905;0.017;-0.1694;-0.0084;0.6075;19.75;-20.67;-2.06;299.58;-81.05;32.37;0.0;983.86;47.429;31.26146;34.79971;1003.23;NaN;;;44.42258;;0 / 0;36503;2023-03-30 16:34:33:773
-1.1049;9.685;1.3041;-0.7427;9.6941;1.3072;-0.1;-0.1209;0.1277;-0.0049;0.0712;0.0304;0.6075;19.53;-21.31;-1.45;294.34;-81.17;30.25;0.0;983.86;43.816;31.26146;34.79971;1003.23;NaN;;;44.42258;;0 / 0;37003;2023-03-30 16:34:34:273
-0.7316;9.6108;1.264;-0.7532;9.697;1.2792;0.0995;-6.0E-4;-0.0818;0.0087;0.0962;-0.0168;0.6075;19.31;-21.18;-3.57;304.23;-81.3;30.49;0.0;984.08;39.724;31.26146;34.79971;1003.23;NaN;;;44.42258;;0 / 0;37503;2023-03-30 16:34:34:773
-0.6144;9.2477;1.3143;-0.8137;9.6996;1.2217;-0.449;-0.6618;0.008;0.0428;-0.0414;-0.042;0.6075;19.29;-20.87;-2.88;302.57;-81.36;31.91;0.0;983.99;41.897;31.26146;34.79971;1003.23;NaN;;;44.42258;;0 / 0;38004;2023-03-30 16:34:35:274
-0.5288;9.591;1.0804;-0.8968;9.7033;1.1303;0.1863;-0.1343;-0.1991;0.0037;0.0174;-0.0255;0.6075;20.61;-20.35;-1.02;304.16;-81.54;38.43;0.0;983.83;42.424;31.26146;34.79971;1003.23;NaN;;;44.42258;;0 / 0;38504;2023-03-30 16:34:35:774
-0.5288;9.6437;1.1085;-0.8211;9.7031;1.1882;-0.1311;-0.0856;0.1456;-0.0157;0.1393;0.0446;0.6075;19.11;-21.17;-3.18;306.48;-81.59;38.17;0.0;984.0;41.306;31.26146;34.79971;1003.23;NaN;;;44.42258;;0 / 0;39003;2023-03-30 16:34:36:273
-0.7974;9.664;1.1874;-0.7651;9.711;1.1609;0.1168;0.0285;0.079;-0.0029;-0.0435;0.0229;0.6075;18.91;-21.08;-3.29;304.73;-81.85;33.39;0.0;984.0;39.928;31.26146;34.79971;1003.23;NaN;;;44.42258;;0 / 0;39503;2023-03-30 16:34:36:773
-1.5344;9.3063;1.2885;-0.7765;9.708;1.1779;-0.0866;0.0811;-0.0774;0.0024;-0.0869;0.0073;0.0475;18.53;-21.37;-3.71;307.89;-81.73;33.39;0.0;983.97;40.388;31.26146;34.79971;1003.23;NaN;;;44.42258;;0 / 0;40003;2023-03-30 16:34:37:273
-0.341;9.7615;1.133;-0.7445;9.7136;1.1525;0.0538;-0.0734;-0.1453;0.0165;-0.0611;-0.0203;0.0475;19.65;-20.76;-2.06;301.08;-81.96;32.86;0.0;983.86;42.637;31.26146;34.79971;1003.23;NaN;;;44.42258;;0 / 0;40503;2023-03-30 16:34:37:773
0.3834;9.7328;0.9948;-0.7678;9.7446;0.8305;0.9642;0.1935;0.4614;0.2422;0.2815;-0.2124;0.0475;19.4;-21.19;-0.26;294.16;-82.82;31.62;0.0;983.57;41.532;31.26146;34.79971;1003.23;NaN;;;44.42258;;0 / 0;41004;2023-03-30 16:34:38:274
-2.3043;9.6712;-0.9344;-2.0687;9.5522;-0.8444;0.6517;0.432;0.2089;0.4108;-1.0782;-0.0464;0.0475;22.41;-16.32;0.76;11.42;-78.54;107.23;0.0;984.05;44.19;31.26146;34.79971;1003.23;NaN;;;44.42258;;0 / 0;41504;2023-03-30 16:34:38:774
1.1743;9.8997;-1.008;-1.1573;9.6326;-1.4527;-2.0447;-0.3238;-0.5754;-0.0408;-0.0677;0.2941;0.0475;21.33;-18.35;3.78;48.08;-79.09;141.46;0.0;983.49;53.68;31.26146;34.79971;1003.23;NaN;;;44.42258;;0 / 0;42004;2023-03-30 16:34:39:274
-2.0578;10.1055;-1.5338;-1.1859;9.7084;-0.7594;5.3299;-0.152;0.5857;-0.0602;-1.3358;0.1607;0.0475;21.35;-18.3;-2.76;59.06;-78.57;132.01;0.0;983.79;40.635;31.26146;34.79971;1003.23;NaN;;;44.42258;;0 / 0;42503;2023-03-30 16:34:39:773
2.6883;9.1382;1.3214;0.8917;9.7682;-0.1551;-5.1053;-0.3834;-0.9948;-0.534;1.0896;0.0877;0.0475;14.01;-23.23;-8.99;200.4;-84.71;-99.87;0.0;983.95;41.236;31.26146;34.79971;1003.23;NaN;;;44.42258;;0 / 0;43004;2023-03-30 16:34:40:274
0.7472;9.3781;2.2451;1.1975;9.5549;1.8724;-1.1823;0.1571;0.5226;-0.3242;-0.044;0.0273;0.0475;13.25;-23.03;-12.75;265.65;-76.91;-32.6;0.0;984.91;56.129;31.26146;34.79971;1003.23;NaN;;;44.42258;;0 / 0;43504;2023-03-30 16:34:40:774
3.1178;9.3194;0.3344;2.4731;9.4637;0.7468;0.3392;-0.1962;0.1186;0.4968;0.047;0.119;0.0475;9.6;-25.36;-9.43;238.89;-74.65;-51.28;0.0;984.53;40.989;31.26146;34.79971;1003.23;NaN;;;44.42258;;0 / 0;44003;2023-03-30 16:34:41:273
2.0477;4.5398;2.4179;7.5302;6.2859;0.1387;-1.7885;-0.5945;4.0958;1.5867;4.2254;1.6018;0.0475;-11.57;-25.85;9.0;143.32;-39.85;-88.95;0.0;982.98;41.725;31.26146;34.79971;1003.23;NaN;;;44.42258;;0 / 0;44504;2023-03-30 16:34:41:774
5.8469;13.0301;2.3898;-2.0779;9.4925;1.3458;7.6037;1.2729;6.1029;-0.7692;-0.7242;2.0047;0.0475;14.69;-18.3;18.24;270.38;-65.77;70.84;0.0;984.95;42.472;31.26146;34.79971;1003.23;NaN;;;44.42258;;0 / 0;45004;2023-03-30 16:34:42:274
-0.5785;13.3508;1.2718;4.3176;8.6997;1.382;-4.9318;4.9186;-0.1786;0.1642;-0.2514;1.1304;0.0475;-6.83;-25.63;16.96;124.37;-70.37;-55.72;0.0;984.03;46.811;31.26146;34.79971;1003.23;NaN;;;44.42258;;0 / 0;45503;2023-03-30 16:34:42:773
4.6475;5.8193;2.2672;2.2584;9.2823;2.2302;2.3892;-3.4629;0.0369;-0.3746;0.2303;-5.299;0.0475;-1.29;-22.48;24.56;141.28;-71.12;-45.36;0.0;983.56;51.402;31.26146;34.79971;1003.23;NaN;;;44.42258;;0 / 0;46004;2023-03-30 16:34:43:274
2.2277;9.8046;2.942;-0.4953;9.2364;3.2681;2.7232;0.5683;-0.3263;0.0771;-0.6196;0.3088;0.0475;5.92;-22.92;22.58;224.05;-64.57;43.26;0.0;984.4;52.67;31.26146;34.79971;1003.23;NaN;;;44.42258;;0 / 0;46503;2023-03-30 16:34:43:773
0.8453;8.8511;2.8044;1.486;9.3478;2.5783;-0.6406;-0.4966;0.2259;0.0341;-0.8427;-0.1411;0.0475;11.77;-22.73;20.14;183.72;-71.74;-26.29;0.0;984.87;56.789;31.26146;34.79971;1003.23;NaN;;;44.42258;;0 / 0;47004;2023-03-30 16:34:44:274
0.8973;9.5533;0.652;2.1239;9.4572;1.5122;-0.557;-0.1945;-0.8454;-0.2957;-2.0673;-0.4449;0.0475;27.49;-21.08;1.12;208.5;-74.59;-54.55;0.0;983.82;59.772;31.26146;34.79971;1003.23;NaN;;;44.42258;;0 / 0;47504;2023-03-30 16:34:44:774
2.1577;9.2662;1.2413;1.445;9.6463;1.047;0.0548;-0.0791;-0.0727;0.1153;0.3861;-0.0041;0.0475;29.06;-18.4;-2.1;215.69;-79.07;-54.8;0.0;984.01;46.539;31.26146;34.79971;1003.23;NaN;;;44.42258;;0 / 0;48003;2023-03-30 16:34:45:273
-0.8572;9.7113;1.5482;-0.3015;9.7414;1.1183;-0.6392;0.2118;0.2254;0.0693;-0.0099;-0.0593;0.0475;32.79;-13.35;-1.96;278.79;-83.13;8.07;0.0;983.71;40.323;31.26146;34.79971;1003.23;NaN;;;44.42258;;0 / 0;48503;2023-03-30 16:34:45:773
-0.6413;9.7023;0.7268;-0.3889;9.769;0.8068;0.0709;-0.0449;-0.0632;0.0519;-0.064;-0.0588;0.0475;33.34;-12.94;-0.94;291.46;-84.55;21.81;0.0;983.93;52.903;31.26146;34.79971;1003.23;NaN;;;44.42258;;0 / 0;49003;2023-03-30 16:34:46:273
-0.4828;9.7202;0.7561;-0.5703;9.7599;0.81;-0.1758;-0.0335;0.0129;-0.0522;-0.1077;-0.118;0.0475;33.5;-12.03;-2.66;308.45;-84.2;35.15;0.0;984.12;56.609;31.26146;34.79971;1003.23;NaN;;;44.42258;;0 / 0;49504;2023-03-30 16:34:46:774
-0.7178;9.6197;1.4542;-0.6923;9.695;1.328;-0.2425;-0.0798;0.1396;-0.1112;0.1051;0.1132;0.0475;32.66;-11.59;-3.82;307.88;-81.37;33.76;0.0;983.89;41.76;31.26146;34.79971;1003.23;NaN;;;44.42258;;0 / 0;50003;2023-03-30 16:34:47:273
-0.4558;9.6365;1.7318;-0.4005;9.6929;1.4574;-0.0576;-0.0491;0.2763;0.0567;-0.0515;0.0513;0.0475;32.35;-13.01;-3.7;288.87;-81.14;15.36;0.0;983.98;50.229;31.26146;34.79971;1003.23;NaN;;;44.42258;;0 / 0;50504;2023-03-30 16:34:47:774
-0.3793;9.7711;1.1228;-0.3657;9.7354;1.1504;-0.0238;-5.0E-4;-0.1012;0.0684;-0.0557;0.0541;0.0;32.02;-12.77;-5.43;295.21;-82.44;19.28;0.0;983.87;47.405;31.26146;34.79971;1003.23;NaN;;;44.42258;;0 / 0;51004;2023-03-30 16:34:48:274
0.2207;9.591;0.8327;0.0229;9.7532;1.0537;0.3361;-0.158;-0.2529;0.0425;-1.5409;-0.0536;0.0;31.34;-13.98;-8.74;287.84;-83.5;11.56;0.0;983.76;48.294;31.26146;34.79971;1003.23;NaN;;;44.42258;;0 / 0;51504;2023-03-30 16:34:48:774
2.0865;9.652;1.5392;0.805;9.6799;1.3736;1.1814;-0.0141;0.1316;-0.0854;-0.1078;0.3325;0.0;30.12;-16.26;-13.36;270.32;-82.09;-18.87;0.0;984.12;50.083;31.26146;34.79971;1003.23;NaN;;;44.42258;;0 / 0;52003;2023-03-30 16:34:49:273
-0.0479;9.6383;1.6822;-0.0847;9.7028;1.4436;0.0162;-0.0634;0.2302;-0.0224;0.0197;0.0319;0.0;31.04;-13.05;-14.01;293.21;-81.57;2.11;0.0;984.02;54.098;31.26146;34.79971;1003.23;NaN;;;44.42258;;0 / 0;52503;2023-03-30 16:34:49:773
-0.3386;9.6461;1.3902;-0.1107;9.7077;1.4086;-0.0991;-0.0338;3.0E-4;-0.0034;0.025;-0.0031;0.0;32.28;-13.11;-13.14;293.77;-81.69;4.76;0.0;983.97;43.636;31.26146;34.79971;1003.23;NaN;;;44.42258;;0 / 1;53003;2023-03-30 16:34:50:273
-0.1035;9.7107;1.4387;8.0E-4;9.7166;1.3503;-0.0478;-0.03;0.1144;0.0043;0.0176;-0.0095;0.0;31.24;-13.25;-14.4;291.33;-82.06;0.06;0.0;983.88;48.254;31.26146;34.79971;1003.23;NaN;;;44.42258;;0 / 1;53504;2023-03-30 16:34:50:774
0.0072;9.6963;1.3352;0.0708;9.726;1.2792;-0.0501;-0.0399;0.0517;0.0156;-0.0148;-0.0156;0.0;31.94;-13.29;-11.65;284.49;-82.5;-3.17;0.0;983.98;50.337;31.26146;34.79971;1003.23;NaN;;;44.42258;;0 / 1;54003;2023-03-30 16:34:51:273
-0.0311;9.6682;1.2586;-0.0171;9.7331;1.2256;0.006;-0.0707;-0.0058;-0.0037;-0.0312;-0.0237;0.0;31.26;-12.16;-12.0;288.42;-82.85;-0.14;0.0;983.98;47.734;31.26146;34.79971;1003.23;NaN;;;44.42258;;0 / 1;54503;2023-03-30 16:34:51:773
-0.2859;9.655;1.4189;-0.1167;9.7258;1.2774;-0.1059;-0.0829;0.1083;-0.02;0.0086;-0.0316;0.0;32.33;-12.61;-11.75;292.95;-82.49;5.22;0.0;983.98;47.435;31.26146;34.79971;1003.23;NaN;;;44.42258;;0 / 0;55004;2023-03-30 16:34:52:274
-0.5833;9.6431;1.3932;-0.2212;9.7147;1.3462;-0.3182;-0.071;0.0654;-0.002;-0.122;-0.1526;0.0;32.06;-12.64;-12.46;291.44;-82.12;3.87;0.0;983.95;46.888;31.26146;34.79971;1003.23;NaN;;;44.42258;;0 / 0;55504;2023-03-30 16:34:52:774
-0.521;9.6185;1.3842;-0.2844;9.704;1.4097;-0.2492;-0.0741;-0.0179;-0.0377;0.0768;0.0235;0.0;32.44;-12.25;-12.25;299.1;-81.57;11.41;0.0;983.89;46.181;31.26146;34.79971;1003.23;NaN;;;44.42258;;0 / 2;56004;2023-03-30 16:34:53:274
-0.1519;9.6538;1.477;-0.1761;9.7014;1.4448;0.053;-0.0381;0.0036;0.0076;-0.0318;0.0183;0.0;32.94;-12.15;-12.24;294.02;-81.47;6.95;0.0;983.94;49.865;31.26146;34.79971;1003.23;NaN;;;44.42258;;0 / 2;56503;2023-03-30 16:34:53:773
-0.0556;9.6676;1.3681;-0.1258;9.7142;1.362;0.2069;0.0125;0.0759;0.0345;0.0119;-0.0043;0.0;31.92;-12.32;-10.97;290.8;-81.8;4.76;0.0;983.95;51.838;31.26146;34.79971;1003.23;NaN;;;44.42258;;0 / 0;57004;2023-03-30 16:34:54:274
-0.0401;9.7155;1.2634;-0.0941;9.734;1.2147;0.0537;-0.0203;0.0632;0.0512;-0.0179;-0.0278;0.0;31.93;-12.61;-11.26;293.43;-82.6;5.64;0.0;983.84;45.697;31.26146;34.79971;1003.23;NaN;;;44.42258;;0 / 0;57504;2023-03-30 16:34:54:774
0.3829;9.7322;1.1282;0.0169;9.7592;0.9967;0.3305;-0.0272;0.1351;0.0093;0.0197;0.088;0.0;31.61;-13.46;-10.85;285.76;-84.17;-0.97;0.0;983.88;42.495;31.26146;34.79971;1003.23;NaN;;;44.42258;;0 / 1;58003;2023-03-30 16:34:55:273
-0.0383;9.7119;0.9733;-0.0437;9.7575;1.0125;0.0567;-0.0516;-0.0687;-0.02;0.0118;0.0153;0.0;31.72;-13.27;-11.15;290.1;-84.16;3.34;0.0;983.98;47.652;31.26146;34.79971;1003.23;NaN;;;44.42258;;0 / 1;58503;2023-03-30 16:34:55:773
-6.0E-4;9.7256;1.1252;-0.0312;9.7476;1.1039;-0.0915;-0.0585;-0.0322;-0.0292;0.022;0.0208;0.0;32.02;-12.71;-11.46;288.11;-83.54;1.62;0.0;984.01;40.424;31.26146;34.79971;1003.23;NaN;;;44.42258;;0 / 1;59003;2023-03-30 16:34:56:273
0.0748;9.6861;1.2401;0.097;9.736;1.1985;-0.1683;-0.0487;0.0382;0.0089;0.0258;0.0568;0.0;32.04;-13.29;-11.85;285.65;-82.98;-2.21;0.0;984.05;42.028;31.26146;34.79971;1003.23;NaN;;;44.42258;;0 / 1;59503;2023-03-30 16:34:56:773
0.2148;9.6951;1.1414;0.3383;9.7538;0.9924;0.0506;-0.0027;0.0622;0.062;0.0105;0.0515;0.0;31.63;-14.42;-11.72;272.86;-83.53;-15.02;0.0;983.91;40.725;31.26146;34.79971;1003.23;NaN;;;44.42258;;0 / 2;60003;2023-03-30 16:34:57:273
1.1157;9.7956;0.5569;0.7565;9.7612;0.6186;-0.2702;0.018;0.0878;0.104;0.015;0.225;0.0;29.63;-16.3;-10.47;235.45;-84.28;-50.73;0.0;983.62;39.775;31.26146;34.79971;1003.23;NaN;;;44.42258;;0 / 2;60503;2023-03-30 16:34:57:773
1.3789;9.4887;0.2937;1.4018;9.7062;0.2454;-0.0214;-0.0178;-0.0198;0.0189;-0.0599;-0.0315;0.0;28.67;-17.84;-10.77;208.64;-81.66;-80.07;0.0;983.49;38.753;31.26146;34.79971;1003.23;NaN;;;44.42258;;0 / 1;61004;2023-03-30 16:34:58:274
1.1773;9.6;0.4487;1.556;9.6818;0.2791;0.2569;0.0373;-0.1321;-0.0136;-0.2155;0.0574;0.0;27.74;-18.17;-12.61;213.26;-81.1;-79.12;0.0;983.94;47.437;31.26146;34.79971;1003.23;NaN;;;44.42258;;0 / 1;61504;2023-03-30 16:34:58:774
1.8299;9.5049;0.2776;1.7353;9.651;0.2895;7.0E-4;-0.0776;0.0428;-0.0049;-0.0154;0.0299;0.0;27.33;-19.67;-11.99;210.0;-79.85;-80.43;0.0;983.98;38.321;31.26146;34.79971;1003.23;NaN;;;44.42258;;0 / 0;62003;2023-03-30 16:34:59:273
1.8389;9.524;0.3248;1.7969;9.6388;0.3172;-0.0204;-0.0915;0.0576;-0.0089;-0.007;-0.0127;0.0;27.93;-18.91;-12.08;210.28;-79.28;-79.99;0.0;983.97;39.247;31.26146;34.79971;1003.23;NaN;;;44.42258;;0 / 0;62504;2023-03-30 16:34:59:774
1.7001;9.5725;0.3523;1.7528;9.6463;0.3355;-0.0644;-0.059;-0.0037;-0.0098;-0.0148;-0.0122;0.0;27.95;-18.73;-12.79;212.49;-79.49;-79.38;0.0;983.96;40.332;31.26146;34.79971;1003.23;NaN;;;44.42258;;0 / 0;63004;2023-03-30 16:35:00:274
1.7868;9.5815;0.3248;1.733;9.649;0.3599;0.0037;-0.0873;-0.0427;-0.0137;-0.0425;-0.024;0.0;27.63;-18.53;-12.1;211.03;-79.54;-78.61;0.0;983.98;40.82;31.26146;34.79971;1003.23;NaN;;;44.42258;;0 / 0;63503;2023-03-30 16:35:00:773
1.7288;9.6245;0.4098;1.7794;9.6397;0.3816;-0.0434;-0.0155;-0.0124;-2.0E-4;0.0031;-0.0066;0.0;27.35;-18.73;-12.52;214.43;-79.24;-77.89;0.0;984.01;43.227;31.26146;34.79971;1003.23;NaN;;;44.42258;;0 / 0;64003;2023-03-30 16:35:01:273
5.1135;13.9472;0.3882;4.9407;8.4688;0.3246;5.4546;8.921;0.9808;-0.4256;-1.2695;2.3709;0.0;16.49;-26.77;-16.52;214.26;-59.69;-86.24;0.0;984.03;46.26;31.26146;34.79971;1003.23;NaN;;;44.42258;;0 / 0;64503;2023-03-30 16:35:01:773
7.4154;8.4538;3.6814;2.3952;9.2504;2.2203;3.6594;-2.3304;1.3413;0.0611;0.68;-1.7506;0.0;26.47;-14.18;-15.48;245.57;-70.55;-47.17;0.0;983.48;46.762;31.26146;34.79971;1003.23;NaN;;;44.42258;;0 / 1;65003;2023-03-30 16:35:02:273
2.817;9.4247;2.5579;3.1055;9.0292;2.2507;-0.8757;-0.0611;0.846;-0.0385;-0.2677;-0.1921;0.0;24.78;-15.37;-17.64;242.55;-66.19;-54.57;0.0;984.61;57.797;31.26146;34.79971;1003.23;NaN;;;44.42258;;0 / 1;65504;2023-03-30 16:35:02:774
-4.2664;13.3298;5.9946;4.2717;8.8192;0.4593;-0.2103;11.8485;-2.1058;0.3282;-1.2915;-0.0331;0.0;20.96;-18.85;-14.62;222.72;-60.63;-71.66;0.0;981.72;40.98;31.26146;34.79971;1003.23;NaN;;;44.42258;;0 / 0;66004;2023-03-30 16:35:03:274
12.5498;12.3458;4.7103;2.0648;9.5179;1.1755;13.0549;0.7684;3.2238;0.2978;1.4432;-4.7699;0.0;6.38;-15.15;-11.76;223.02;-45.58;-82.34;0.0;983.63;44.72;31.26146;34.79971;1003.23;NaN;;;44.42258;;0 / 0;66503;2023-03-30 16:35:03:773
1.0343;9.2997;2.2612;2.7675;9.2368;1.8054;1.3039;-0.7924;1.1541;-0.2259;0.057;0.7816;0.0;2.94;-14.64;-8.52;253.1;-70.32;-56.88;0.0;984.83;48.401;31.26146;34.79971;1003.23;NaN;;;44.42258;;0 / 0;67004;2023-03-30 16:35:04:274
4.41;8.8289;1.6528;4.7487;8.4546;1.4853;-0.3133;0.386;0.0275;0.1545;0.0806;0.1828;0.0;-3.75;-15.74;-7.69;247.74;-59.6;-70.45;0.0;984.6;38.425;31.26146;34.79971;1003.23;NaN;;;44.42258;;0 / 0;67503;2023-03-30 16:35:04:773
11.9384;3.3835;1.9119;3.2658;9.1516;1.3484;9.189;-5.9204;0.4585;0.7854;-0.7263;-1.6474;0.0;1.94;-23.31;-11.25;240.3;-69.82;-70.74;0.0;984.39;39.14;31.26146;34.79971;1003.23;NaN;;;44.42258;;0 / 0;68003;2023-03-30 16:35:05:273
8.8122;6.8824;0.749;4.8632;8.4954;0.6437;3.7551;-0.6221;0.9341;0.2888;0.1213;-1.2191;0.0;-3.28;-16.76;-7.03;231.91;-60.0;-82.46;0.0;984.89;45.019;31.26146;34.79971;1003.23;NaN;;;44.42258;;0 / 0;68503;2023-03-30 16:35:05:773
1.66;10.3226;0.0018;-1.6413;9.6682;0.2606;1.4852;-0.6925;0.8974;0.3783;0.2019;-0.166;0.0;12.97;-9.67;-6.48;18.11;-80.25;80.98;0.0;983.02;43.096;31.26146;34.79971;1003.23;NaN;;;44.42258;;0 / 0;69003;2023-03-30 16:35:06:273
-3.9547;8.7512;-0.3511;-3.4925;9.1583;-0.4038;-0.5281;-0.219;0.0044;-0.0263;0.2091;0.0702;0.0;17.21;-3.42;-7.25;32.57;-69.0;96.6;0.0;984.17;42.121;31.26146;34.79971;1003.23;NaN;;;44.42258;;0 / 0;69504;2023-03-30 16:35:06:774
2.0058;7.6235;3.6215;-1.868;9.6217;-0.4124;-2.0832;0.037;0.304;-0.244;0.0559;1.04;0.0;14.3;-8.31;-5.04;37.33;-74.3;101.5;0.0;983.83;39.056;31.26146;34.79971;1003.23;NaN;;;44.42258;;0 / 0;70003;2023-03-30 16:35:07:273
2.8289;9.4756;3.0096;2.0693;9.2874;2.3872;0.7963;0.4868;-0.2446;0.0954;-0.329;-0.0316;0.0;0.79;-11.18;-17.54;304.78;-71.21;-40.92;0.0;983.56;52.154;31.26146;34.79971;1003.23;NaN;;;44.42258;;0 / 0;70503;2023-03-30 16:35:07:773
6.4672;7.7432;4.1731;1.6049;9.6757;-0.2011;5.2735;-2.7939;5.8737;0.567;-1.7837;-0.5634;0.0;-1.92;-14.29;-15.87;279.29;-76.84;-76.64;0.0;984.79;39.831;31.26146;34.79971;1003.23;NaN;;;44.42258;;0 / 0;71004;2023-03-30 16:35:08:274
-2.2199;9.737;0.9637;-0.6799;9.7779;-0.4086;-1.5399;-0.0408;1.3721;-0.2315;-1.9319;-1.7404;0.0;-8.65;-18.12;-10.76;280.83;-82.6;-117.93;0.0;983.16;41.309;31.26146;34.79971;1003.23;NaN;;;44.42258;;0 / 0;71503;2023-03-30 16:35:08:773
-0.1597;9.5958;1.8526;-0.7305;9.622;1.7664;2.9159;0.2617;0.4186;-0.4727;0.0115;1.0353;0.0;-11.76;-13.44;-11.22;111.07;-76.76;55.48;0.0;983.81;49.303;31.26146;34.79971;1003.23;NaN;;;44.42258;;0 / 0;72003;2023-03-30 16:35:09:273
2.1081;8.9952;2.7362;2.3283;9.2019;2.4778;0.0803;0.1206;0.1966;0.0293;-0.248;0.8702;0.0;-16.46;-7.15;-10.89;29.65;-72.99;-29.95;0.0;985.4;41.182;31.26146;34.79971;1003.23;NaN;;;44.42258;;0 / 0;72504;2023-03-30 16:35:09:774
4.8718;4.5314;0.1011;4.4704;8.6374;1.2833;0.9178;-3.8606;-1.4367;0.1165;1.0472;-3.3591;0.0;-33.43;2.14;-6.19;359.94;-46.0;-82.7;0.0;983.1;45.955;31.26146;34.79971;1003.23;NaN;;;44.42258;;0 / 1;73003;2023-03-30 16:35:10:273
12.2201;7.063;4.3328;0.6941;9.6855;1.3951;-7.5703;6.9687;5.0522;-0.5173;0.3627;1.7736;0.0;-36.92;-3.67;-10.72;48.06;-80.86;-26.45;0.0;984.91;40.335;31.26146;34.79971;1003.23;NaN;;;44.42258;;0 / 1;73503;2023-03-30 16:35:10:773
4.5129;10.7785;2.1111;6.1522;7.614;0.643;-1.6391;3.1645;1.4678;0.2923;-0.1025;1.9717;0.0;-38.81;11.37;-9.09;4.99;-63.03;-71.93;0.0;985.49;59.95;31.26146;34.79971;1003.23;NaN;;;44.42258;;0 / 1;74004;2023-03-30 16:35:11:274
3.1866;9.2088;3.8267;0.9034;9.7679;-0.0891;2.2834;-0.559;3.9156;1.2937;2.2454;-4.1406;0.0;-20.75;-9.5;-35.15;292.31;-59.72;-88.13;0.0;982.39;67.059;31.26146;34.79971;1003.23;NaN;;;44.42258;;0 / 1;74503;2023-03-30 16:35:11:773
7.8317;9.4666;0.4696;3.4373;9.0596;1.5314;3.3938;0.6434;0.528;-0.0765;0.064;0.7807;0.0;-10.36;-9.0;-38.71;306.86;-72.49;-63.03;0.0;984.79;48.995;31.26146;34.79971;1003.23;NaN;;;44.42258;;0 / 1;75004;2023-03-30 16:35:12:274
-0.7687;3.9691;0.4337;7.5952;6.176;-0.6378;4.3332;3.5796;3.5197;0.2613;1.2278;1.9187;0.0;-19.11;-11.37;-34.82;272.4;-39.02;-94.8;0.0;983.37;44.139;31.26146;34.79971;1003.23;NaN;;;44.42258;;0 / 1;75503;2023-03-30 16:35:12:773
3.1131;13.4638;-2.3474;-2.2486;9.3655;1.862;9.1054;2.226;3.7944;-0.024;0.2034;1.179;0.0;14.76;-11.87;-34.46;52.72;-63.42;66.33;0.0;984.31;46.555;31.26146;34.79971;1003.23;NaN;;;44.42258;;0 / 1;76004;2023-03-30 16:35:13:274
1.7366;9.8477;2.5777;1.9073;9.2838;2.5318;-0.5594;0.4426;-0.0609;0.0499;-0.3514;1.1748;0.0;3.07;-14.97;-36.64;330.04;-74.09;-16.5;0.0;985.47;55.728;31.26146;34.79971;1003.23;NaN;;;44.42258;;0 / 1;76504;2023-03-30 16:35:13:774
4.7892;10.8969;1.8413;2.7433;9.2983;1.5005;1.4419;-1.3325;-0.9103;-0.4641;1.1576;-3.3269;0.0;-1.1;-16.76;-34.66;290.55;-71.41;-61.32;0.0;983.14;42.57;31.26146;34.79971;1003.23;NaN;;;44.42258;;0 / 0;77004;2023-03-30 16:35:14:274
-1.6086;9.6676;2.1188;-0.2218;9.4848;2.4953;1.3304;0.0705;0.4836;-0.1368;-0.2301;0.6729;0.0;6.95;-15.95;-35.53;13.52;-75.01;22.57;0.0;984.57;50.977;31.26146;34.79971;1003.23;NaN;;;44.42258;;0 / 0;77504;2023-03-30 16:35:14:774
2.1817;9.4044;1.3555;2.823;9.2652;1.5566;-0.7611;0.3223;-0.0296;0.2856;-0.5102;0.6051;0.0;-2.27;-18.86;-35.16;308.91;-72.52;-45.55;0.0;984.75;49.364;31.26146;34.79971;1003.23;NaN;;;44.42258;;0 / 1;78004;2023-03-30 16:35:15:274
2.5077;7.0528;-1.4758;5.2488;8.2876;-0.045;-3.8229;-1.7519;-1.5184;-0.4982;0.4297;-1.113;0.0;-21.02;-17.63;-30.43;285.32;-56.26;-88.59;0.0;983.59;42.543;31.26146;34.79971;1003.23;NaN;;;44.42258;;0 / 1;78503;2023-03-30 16:35:15:773
-1.0558;9.8184;1.2562;-0.0828;9.748;1.0984;-1.1691;-0.0988;-0.0566;-0.1759;0.1985;-1.0318;0.0;1.11;-21.15;-33.55;2.84;-83.55;4.31;0.0;983.81;40.187;31.26146;34.79971;1003.23;NaN;;;44.42258;;0 / 1;79003;2023-03-30 16:35:16:273
-0.5492;9.6383;1.3507;-0.5607;9.716;1.2332;0.1005;-0.047;0.0518;0.037;0.0162;-0.0029;0.0;1.62;-20.89;-34.23;22.41;-81.88;23.67;0.0;984.04;43.901;31.26146;34.79971;1003.23;NaN;;;44.42258;;0 / 1;79504;2023-03-30 16:35:16:774
-0.6084;9.7119;0.8554;-0.6583;9.7357;1.0091;0.1091;-0.0305;0.0098;0.0692;0.0438;0.0257;0.0;2.27;-21.61;-33.18;31.45;-82.51;32.22;0.0;984.03;44.034;31.26146;34.79971;1003.23;NaN;;;44.42258;;0 / 1;80003;2023-03-30 16:35:17:273
-0.7747;9.6993;0.6502;-0.8798;9.7401;0.7696;0.1632;0.0104;-0.0851;0.0298;-0.1571;-0.102;0.0;1.42;-21.92;-34.21;50.78;-83.16;48.82;0.0;984.05;45.063;31.26146;34.79971;1003.23;NaN;;;44.42258;;0 / 1;80503;2023-03-30 16:35:17:773
-1.4327;9.5988;0.6604;-1.2717;9.6804;0.9535;-0.3048;-0.0444;-0.2461;-0.086;-0.0383;-0.1828;0.0;-0.02;-21.57;-34.89;56.43;-81.75;51.81;0.0;983.62;39.118;31.26146;34.79971;1003.23;NaN;;;44.42258;;0 / 1;81004;2023-03-30 16:35:18:274
-0.5246;9.5839;1.946;-0.8114;9.6142;1.7732;0.1986;-0.0532;0.1041;-0.1814;0.0362;0.1379;0.0;-0.16;-19.06;-36.67;27.8;-78.53;24.59;0.0;984.39;41.583;31.26146;34.79971;1003.23;NaN;;;44.42258;;0 / 1;81504;2023-03-30 16:35:18:774
-0.0443;9.4881;2.4299;-0.3428;9.5676;2.1401;0.1788;-0.0399;0.1507;-0.0632;0.0762;0.0548;0.0;-0.52;-18.42;-37.61;14.51;-77.54;11.21;0.0;984.1;43.725;31.26146;34.79971;1003.23;NaN;;;44.42258;;0 / 0;82005;2023-03-30 16:35:19:275
-0.6173;9.5791;2.2259;-0.4569;9.5626;2.1408;-0.1144;-0.0089;0.0222;0.0199;0.0041;-0.0371;0.0;-0.34;-17.84;-36.92;12.15;-77.06;10.54;0.0;983.75;43.039;31.26146;34.79971;1003.23;NaN;;;44.42258;;0 / 0;82503;2023-03-30 16:35:19:773
-0.4397;9.4828;1.9992;-0.4795;9.5677;2.1129;-0.199;-0.0686;0.008;0.0075;0.0362;0.0183;0.0;-0.43;-18.32;-37.41;14.7;-77.24;12.79;0.0;983.84;39.913;31.26146;34.79971;1003.23;NaN;;;44.42258;;0 / 0;83003;2023-03-30 16:35:20:273
-0.3733;9.5103;2.2134;-0.3706;9.5719;2.116;-0.1409;-0.0234;0.0101;0.0147;-0.1176;-0.0058;0.0;-0.82;-18.04;-37.43;13.66;-77.3;10.34;0.0;984.0;43.076;31.26146;34.79971;1003.23;NaN;;;44.42258;;0 / 0;83503;2023-03-30 16:35:20:773
-0.5264;9.5354;2.1793;-0.5081;9.5815;2.0426;0.1944;-0.02;-0.0797;0.0073;0.1578;-0.0341;0.0;-0.55;-18.03;-36.61;13.64;-77.57;10.45;0.0;983.98;42.416;31.26146;34.79971;1003.23;NaN;;;44.42258;;0 / 0;84004;2023-03-30 16:35:21:274
-0.4289;9.6114;2.0273;-0.5449;9.5941;1.9729;-0.147;-0.0407;0.0274;0.0376;-0.0866;-0.0466;0.0;-0.52;-18.13;-37.32;19.31;-77.96;15.44;0.0;983.87;40.863;31.26146;34.79971;1003.23;NaN;;;44.42258;;0 / 0;84503;2023-03-30 16:35:21:773
-0.6144;9.5851;1.7551;-0.5804;9.6026;1.9206;0.1502;-0.0093;-0.1499;0.0147;-0.0234;0.0173;0.0;-0.83;-19.18;-37.3;21.17;-78.1;17.01;0.0;983.93;42.289;31.26146;34.79971;1003.23;NaN;;;44.42258;;0 / 0;85004;2023-03-30 16:35:22:274
-0.1083;9.4762;1.925;-0.5064;9.6212;1.8472;-0.0717;-0.0778;0.0419;0.018;-0.0501;-0.0168;0.0;-0.77;-18.96;-36.1;19.02;-78.68;15.14;0.0;983.98;48.873;31.26146;34.79971;1003.23;NaN;;;44.42258;;0 / 0;85503;2023-03-30 16:35:22:773
0.341;9.8758;1.0989;-0.5639;9.685;1.4554;-0.1703;-0.0693;0.2101;0.1031;0.2457;-0.0037;0.0;0.7;-19.51;-35.82;18.65;-80.07;18.22;0.0;983.99;52.532;31.26146;34.79971;1003.23;NaN;;;44.42258;;0 / 1;86005;2023-03-30 16:35:23:275
-0.6018;9.6365;0.5186;-0.7663;9.7428;0.8529;0.2916;-0.0099;-0.3101;0.1431;-0.1029;-0.0182;0.0;1.81;-21.63;-34.1;26.7;-82.17;27.65;0.0;983.38;49.196;31.26146;34.79971;1003.23;NaN;;;44.42258;;0 / 1;86505;2023-03-30 16:35:23:775
-0.0568;9.8477;0.3069;-0.6914;9.7852;0.0907;0.6081;-0.0155;-0.2818;0.1491;-0.3792;-0.0147;0.0;2.05;-23.58;-32.63;73.25;-85.75;73.72;0.0;983.63;41.136;31.26146;34.79971;1003.23;NaN;;;44.42258;;0 / 0;87004;2023-03-30 16:35:24:274
-0.8423;10.075;-0.3936;-0.7551;9.7783;-0.2261;-0.1156;0.1077;-0.1613;-0.0179;-0.0959;0.042;0.0;0.35;-24.81;-31.88;110.0;-85.39;106.67;0.0;983.63;51.528;31.26146;34.79971;1003.23;NaN;;;44.42258;;0 / 0;87504;2023-03-30 16:35:24:774
-0.4259;9.81;-0.594;-0.5457;9.7939;-0.1315;0.1525;-0.0237;-0.291;0.0095;-0.1213;-0.0307;0.0;1.2;-24.4;-30.65;104.14;-86.72;103.55;0.0;983.45;49.608;31.26146;34.79971;1003.23;NaN;;;44.42258;;0 / 1;88004;2023-03-30 16:35:25:274
-0.6969;9.7202;-0.253;-0.7339;9.7808;-0.1833;-0.0343;-0.0552;0.0344;-0.0096;0.0096;-0.0044;0.0;0.5;-25.06;-30.16;106.81;-85.79;105.45;0.0;983.5;50.886;31.26146;34.79971;1003.23;NaN;;;44.42258;;0 / 1;88504;2023-03-30 16:35:25:774
-0.5922;9.6861;-0.1711;-0.68;9.7842;-0.2076;-0.2025;-0.047;-0.0803;0.0228;-0.1101;0.0217;0.0;0.99;-24.67;-30.04;108.31;-85.84;106.97;0.0;983.23;47.682;31.26146;34.79971;1003.23;NaN;;;44.42258;;0 / 1;89004;2023-03-30 16:35:26:274
-0.8363;9.7687;-0.1639;-0.8102;9.7762;-0.0813;-0.1674;-0.0335;-0.0236;-0.0313;0.0385;-0.011;0.0;1.7;-24.58;-30.72;95.84;-85.24;95.73;0.0;983.33;46.806;31.26146;34.79971;1003.23;NaN;;;44.42258;;0 / 1;89504;2023-03-30 16:35:26:774
-0.92;9.8112;0.2542;-0.804;9.7755;0.17;-0.1487;-0.1038;0.0575;-0.04;-0.0626;-0.017;0.0;2.49;-23.83;-31.31;81.44;-85.41;81.59;0.0;983.39;40.732;31.26146;34.79971;1003.23;NaN;;;44.42258;;0 / 0;90004;2023-03-30 16:35:27:274
-1.0433;9.399;-0.4439;-1.0518;9.7483;0.3171;-0.0535;-0.427;-0.1241;-0.0108;0.0365;-0.0197;0.0;2.51;-23.08;-31.72;72.02;-83.74;72.99;0.0;982.1;45.877;31.26146;34.79971;1003.23;NaN;;;44.42258;;0 / 0;90504;2023-03-30 16:35:27:774
-1.0552;9.6359;0.1496;-1.028;9.753;0.2402;-0.2663;0.0271;0.021;0.011;-0.0673;-0.0102;0.0;2.6;-23.36;-31.31;75.84;-83.82;76.85;0.0;982.47;40.915;31.26146;34.79971;1003.23;NaN;;;44.42258;;0 / 1;91004;2023-03-30 16:35:28:274
2.2929;9.2297;-2.8373;-1.3396;9.7154;0.2271;2.6571;-0.6178;-2.842;-0.0712;-0.3076;-0.1524;0.0;2.7;-23.36;-31.61;80.78;-82.04;80.38;0.0;980.85;51.688;31.26146;34.79971;1003.23;NaN;;;44.42258;;0 / 1;91504;2023-03-30 16:35:28:774
-1.8694;10.4788;1.0199;-1.6963;9.6448;0.5796;-0.4655;-0.5777;1.0964;-0.0418;-0.0547;-0.0234;0.0;1.16;-23.3;-32.28;77.03;-79.47;71.14;0.0;978.7;58.538;31.26146;34.79971;1003.23;NaN;;;44.42258;;0 / 1;92004;2023-03-30 16:35:29:274
-1.5003;9.454;-0.1807;-1.6576;9.6617;0.3751;-0.0489;0.231;0.0207;-0.0296;0.0257;-0.0206;0.0;0.79;-23.69;-32.99;83.63;-80.42;78.27;0.0;980.05;53.718;31.26146;34.79971;1003.23;NaN;;;44.42258;;0 / 1;92503;2023-03-30 16:35:29:773
-0.5934;10.1372;-1.0343;-1.806;9.6253;0.5725;0.2401;0.0322;0.0488;-0.1306;0.1568;-0.0345;0.0;1.11;-22.11;-33.92;78.1;-78.86;72.41;0.0;981.55;58.565;31.26146;34.79971;1003.23;NaN;;;44.42258;;0 / 0;93004;2023-03-30 16:35:30:274
-3.9428;8.4299;1.9388;-4.8063;8.476;1.137;0.0746;0.9775;0.2016;-0.1568;1.283;-0.3494;41.2725;12.8;-15.29;-34.46;49.05;-66.41;51.68;2.0;980.4;52.842;31.26146;34.79971;1003.23;NaN;;;44.42258;;0 / 0;93503;2023-03-30 16:35:30:773
-5.3527;8.8881;0.2913;-4.0991;8.9103;0.2011;-1.4778;-0.1148;-0.2061;0.259;0.2949;0.5986;47.5963;8.8;-19.43;-32.04;85.56;-62.46;83.44;2.0;981.52;47.113;31.26146;34.79971;1003.23;NaN;;;44.42258;;0 / 0;94003;2023-03-30 16:35:31:273
-4.9872;8.8576;-1.4943;-5.7344;7.7679;-1.7359;0.7473;1.0899;0.2414;0.9688;-2.5433;-0.9639;47.1788;17.68;-19.29;-25.21;90.97;-58.26;104.47;2.0;982.5;40.951;31.26146;34.79971;1003.23;NaN;;;44.42258;;0 / 0;94503;2023-03-30 16:35:31:773
-6.6102;6.4989;1.4255;-8.3155;4.8704;1.8349;1.7055;1.6286;-0.4096;1.6422;0.3389;0.0875;82.77;6.27;-24.96;-24.27;126.23;-29.77;77.56;2.0;982.99;46.772;31.26146;34.79971;1003.23;NaN;;;44.42258;;0 / 0;95005;2023-03-30 16:35:32:275
-4.608;6.1113;5.1123;-5.0206;5.9974;5.9213;0.4128;0.114;-0.8092;-0.1132;-0.7115;-0.2995;117.1613;-10.33;-26.51;-22.47;123.66;-39.94;43.77;2.0;983.44;51.734;31.26146;34.79971;1003.23;NaN;;;44.42258;;0 / 0;95503;2023-03-30 16:35:32:773
-1.078;1.9902;9.2584;-2.0734;5.537;7.8281;0.9143;-2.8665;2.306;1.3453;-2.5398;0.1901;218.335;-10.59;-30.23;-14.94;142.67;-29.68;31.86;2.0;983.48;39.443;31.26146;34.79971;1003.23;NaN;;;44.42258;;0 / 0;96004;2023-03-30 16:35:33:274
-2.4203;3.3781;9.3715;-1.854;2.6664;9.2568;-2.0162;0.8374;1.3982;0.1666;-0.7582;0.3578;342.1037;-12.2;-24.7;-25.31;135.29;-16.38;14.32;2.0;983.59;37.36;31.26146;34.79971;1003.23;NaN;;;44.42258;;0 / 0;96503;2023-03-30 16:35:33:773
-1.5745;3.0544;8.6602;-1.3675;3.0556;9.2211;-0.4822;-0.0668;-0.8062;0.1846;-0.0182;-0.2465;292.2825;-11.71;-26.34;-22.24;140.75;-18.15;8.44;2.0;983.6;39.11;31.26146;34.79971;1003.23;NaN;;;44.42258;;0 / 0;97003;2023-03-30 16:35:34:273
-0.8524;2.8056;8.7374;-1.7142;2.4631;9.3398;0.9399;0.8047;0.3426;-0.0483;-0.4985;0.0623;292.2825;-10.59;-25.6;-23.51;140.65;-16.46;11.26;2.0;983.58;44.302;31.26146;34.79971;1003.23;NaN;;;44.42258;;0 / 0;97503;2023-03-30 16:35:34:773
-0.5312;1.943;9.2524;-0.2858;2.0596;9.5871;-0.0885;-0.1183;-0.589;-0.3809;-0.7897;-0.0852;292.2825;-16.03;-23.69;-24.72;134.76;-13.6;4.51;2.0;984.04;44.803;31.26146;34.79971;1003.23;NaN;;;44.42258;;0 / 0;98003;2023-03-30 16:35:35:273
-0.4337;2.205;9.2853;-0.6409;2.3194;9.5103;0.1776;-0.1082;-0.1322;0.1944;0.1049;0.0913;292.2825;-15.8;-23.66;-22.9;136.59;-13.44;3.09;2.0;983.73;43.241;31.26146;34.79971;1003.23;NaN;;;44.42258;;0 / 0;98503;2023-03-30 16:35:35:773
-0.6903;2.056;10.264;-1.2688;2.1907;9.4777;0.2015;-0.0869;0.8812;-0.3215;-0.1136;-0.1428;292.2825;-14.15;-22.74;-25.46;135.18;-12.9;7.63;2.0;984.1;39.484;31.26146;34.79971;1003.23;NaN;;;44.42258;;0 / 0;99003;2023-03-30 16:35:36:273
-1.6702;2.1428;9.0826;-1.6328;2.1829;9.4236;0.162;0.0968;0.2548;-0.2425;-0.3783;-0.12;292.2825;-14.21;-22.29;-26.38;133.57;-11.44;8.65;2.0;983.81;38.443;31.26146;34.79971;1003.23;NaN;;;44.42258;;0 / 0;99504;2023-03-30 16:35:36:774
-1.4728;2.5029;9.3912;-1.6092;2.4768;9.3548;0.1548;0.0137;-0.0077;0.0515;-0.0519;-0.0098;292.2825;-13.27;-23.48;-25.1;134.22;-14.62;9.76;2.0;983.8;40.284;31.26146;34.79971;1003.23;NaN;;;44.42258;;0 / 0;100003;2023-03-30 16:35:37:273
-0.3176;2.9629;10.809;-0.8289;2.7203;9.3888;0.0592;-0.0706;1.1123;-0.0867;-0.6055;0.254;292.2825;-15.36;-23.4;-24.39;131.28;-15.98;8.69;2.0;983.88;37.917;31.26146;34.79971;1003.23;NaN;;;44.42258;;0 / 0;100503;2023-03-30 16:35:37:773